time,seconds_elapsed,z,y,x
1772455350440533500,0.071533447265625,-1.01593017578125,0.0720062255859375,0.039642333984375
1772455350450551600,0.081551513671875,-1.0064697265625,0.0772857666015625,0.0342864990234375
1772455350460569300,0.0915693359375,-0.9952850341796875,0.0839385986328125,0.02801513671875
1772455350470587400,0.10158740234375,-0.9918365478515625,0.08563232421875,0.02099609375
1772455350480605400,0.11160546875,-0.9956207275390625,0.08135986328125,0.020721435546875
1772455350490622500,0.12162255859375,-1.005218505859375,0.0782318115234375,0.020416259765625
1772455350500640500,0.131640625,-1.0199737548828125,0.0789031982421875,0.016510009765625
1772455350510658600,0.141658447265625,-1.0326690673828125,0.0858612060546875,0.0163726806640625
1772455350520676400,0.15167626953125,-1.0501708984375,0.092254638671875,0.021026611328125
1772455350530694400,0.1616943359375,-1.0654449462890625,0.0881500244140625,0.024139404296875
1772455350540712400,0.17171240234375,-1.0745849609375,0.0789031982421875,0.016448974609375
1772455350550730500,0.18173046875,-1.0770416259765625,0.07281494140625,0.011932373046875
1772455350560747300,0.191747314453125,-1.0740509033203125,0.0708770751953125,0.0066375732421875
1772455350570765600,0.201765625,-1.0687255859375,0.0703582763671875,-0.0052032470703125
1772455350580783400,0.211783447265625,-1.059906005859375,0.0712127685546875,-0.0191497802734375
1772455350590801400,0.221801513671875,-1.044586181640625,0.0722503662109375,-0.0293121337890625
1772455350600819500,0.2318193359375,-1.0285186767578125,0.071197509765625,-0.031982421875
1772455350610837500,0.24183740234375,-1.01318359375,0.0710601806640625,-0.0344696044921875
1772455350620855300,0.251855224609375,-0.998260498046875,0.0722808837890625,-0.032928466796875
1772455350630873300,0.261873291015625,-0.9834747314453125,0.07574462890625,-0.0230255126953125
1772455350640890400,0.271890380859375,-0.97222900390625,0.08197021484375,-0.0110931396484375
1772455350650908400,0.281908447265625,-0.9639129638671875,0.0832672119140625,-0.0046844482421875
1772455350660926500,0.291926513671875,-0.963348388671875,0.0886688232421875,-0.0023956298828125
1772455350670944500,0.301944580078125,-0.966522216796875,0.0895233154296875,-0.0058135986328125
1772455350680962300,0.31196240234375,-0.972747802734375,0.0895538330078125,-0.015869140625
1772455350690980400,0.32198046875,-0.98046875,0.0863189697265625,-0.0327911376953125
1772455350700998400,0.331998291015625,-0.986572265625,0.08251953125,-0.046600341796875
1772455350711015400,0.342015380859375,-0.98529052734375,0.0777587890625,-0.0563201904296875
1772455350721033200,0.352033203125,-0.983062744140625,0.0770416259765625,-0.0641632080078125
1772455350731051500,0.362051513671875,-0.9736480712890625,0.078460693359375,-0.065032958984375
1772455350741069300,0.3720693359375,-0.9613800048828125,0.0865631103515625,-0.057281494140625
1772455350751087400,0.38208740234375,-0.9535369873046875,0.0891876220703125,-0.0434112548828125
1772455350761105700,0.392105712890625,-0.9493560791015625,0.0873870849609375,-0.02978515625
1772455350771123500,0.40212353515625,-0.95867919921875,0.0828704833984375,-0.028289794921875
1772455350781141500,0.4121416015625,-0.9757843017578125,0.0808868408203125,-0.03704833984375
1772455350791158500,0.422158447265625,-0.9910736083984375,0.0787353515625,-0.05242919921875
1772455350801176300,0.43217626953125,-1.0019378662109375,0.074493408203125,-0.0633087158203125
1772455350811194400,0.4421943359375,-1.0070953369140625,0.067108154296875,-0.0692138671875
1772455350821212400,0.45221240234375,-0.998504638671875,0.063934326171875,-0.0693206787109375
1772455350831230500,0.46223046875,-0.9846649169921875,0.061614990234375,-0.0630645751953125
1772455350841248500,0.47224853515625,-0.9730072021484375,0.061309814453125,-0.053436279296875
1772455350851266300,0.482266357421875,-0.9737091064453125,0.060089111328125,-0.0496368408203125
1772455350861283300,0.492283447265625,-0.971343994140625,0.05804443359375,-0.0483551025390625
1772455350871301400,0.50230126953125,-0.959747314453125,0.0607452392578125,-0.0467529296875
1772455350881319400,0.5123193359375,-0.9508819580078125,0.057952880859375,-0.04730224609375
1772455350891337500,0.52233740234375,-0.9510345458984375,0.0470428466796875,-0.0450439453125
1772455350901355500,0.53235546875,-0.96435546875,0.030914306640625,-0.046417236328125
1772455350911373300,0.542373291015625,-0.98028564453125,0.01544189453125,-0.0556793212890625
1772455350921391400,0.552391357421875,-0.990631103515625,0.0148773193359375,-0.063079833984375
1772455350931409400,0.562409423828125,-0.997283935546875,0.0190887451171875,-0.056854248046875
1772455350941426400,0.572426513671875,-0.9970703125,0.02593994140625,-0.049285888671875
1772455350951444500,0.582444580078125,-0.990447998046875,0.0356597900390625,-0.0410919189453125
1772455350961462500,0.592462646484375,-0.9876556396484375,0.040313720703125,-0.024749755859375
1772455350971480300,0.602480224609375,-0.9864654541015625,0.03802490234375,-0.0099945068359375
1772455350981498400,0.612498291015625,-0.990081787109375,0.0285797119140625,-0.0107269287109375
1772455350991516400,0.622516357421875,-0.9945068359375,0.0195465087890625,-0.01751708984375
1772455351001534500,0.632534423828125,-1.0007476806640625,0.008758544921875,-0.0283050537109375
1772455351011552300,0.64255224609375,-0.997802734375,0.0015716552734375,-0.0323486328125
1772455351021569500,0.652569580078125,-0.99151611328125,0.00244140625,-0.033721923828125
1772455351031587300,0.66258740234375,-0.9847412109375,0.005462646484375,-0.03277587890625
1772455351041605400,0.67260546875,-0.98443603515625,0.01104736328125,-0.02734375
1772455351051623400,0.68262353515625,-0.9941558837890625,0.0193634033203125,-0.0236053466796875
1772455351061641500,0.692641357421875,-1.00341796875,0.0289764404296875,-0.0140533447265625
1772455351071659300,0.7026591796875,-1.008026123046875,0.038848876953125,0.002197265625
1772455351081677300,0.71267724609375,-1.005157470703125,0.0446929931640625,0.0268402099609375
1772455351091695400,0.7226953125,-1.004608154296875,0.03314208984375,0.03619384765625
1772455351101712400,0.73271240234375,-1.0033111572265625,0.014068603515625,0.0339202880859375
1772455351111730400,0.74273046875,-1.000518798828125,-0.00006103515625,0.0242767333984375
1772455351121748500,0.75274853515625,-0.9942779541015625,-0.0119476318359375,0.013519287109375
1772455351131766300,0.762766357421875,-0.9837799072265625,-0.021148681640625,-0.002655029296875
1772455351141784300,0.772784423828125,-0.9773101806640625,-0.0281982421875,-0.01580810546875
1772455351151802400,0.78280224609375,-0.9743804931640625,-0.032012939453125,-0.0245208740234375
1772455351161820400,0.7928203125,-0.9718780517578125,-0.0364532470703125,-0.0295562744140625
1772455351171837400,0.80283740234375,-0.9658355712890625,-0.035400390625,-0.029296875
1772455351181855500,0.81285546875,-0.9647979736328125,-0.032562255859375,-0.014312744140625
1772455351191873300,0.822873291015625,-0.967803955078125,-0.0224151611328125,-0.0033416748046875
1772455351201891300,0.832891357421875,-0.9696807861328125,-0.0134124755859375,0.000030517578125
1772455351211909600,0.84290966796875,-0.9771575927734375,-0.00732421875,0.00250244140625
1772455351221927400,0.852927490234375,-0.9932708740234375,-0.0074920654296875,0.0034942626953125
1772455351231945500,0.862945556640625,-0.9936981201171875,-0.0012664794921875,0.0030364990234375
1772455351241963300,0.87296337890625,-0.9702911376953125,0.0005950927734375,0.0125274658203125
1772455351251980500,0.88298046875,-1.0076141357421875,-0.0142822265625,0.0083770751953125
1772455351261998300,0.892998291015625,-1.02008056640625,-0.028594970703125,-0.0386810302734375
1772455351272016600,0.9030166015625,-1.0282745361328125,-0.027862548828125,-0.062255859375
1772455351282034400,0.913034423828125,-1.0449676513671875,-0.0333099365234375,-0.0584564208984375
1772455351292052500,0.923052490234375,-1.0228118896484375,-0.041473388671875,-0.0541534423828125
1772455351302070300,0.9330703125,-0.9609375,-0.033294677734375,-0.0291900634765625
1772455351312088600,0.943088623046875,-0.88580322265625,-0.0099639892578125,0.010467529296875
1772455351322106400,0.9531064453125,-0.8471221923828125,-0.0041351318359375,0.0535888671875
1772455351332123400,0.963123291015625,-0.8515167236328125,-0.0226898193359375,0.07110595703125
1772455351342141400,0.973141357421875,-0.8824920654296875,-0.0364837646484375,0.0609893798828125
1772455351352159500,0.983159423828125,-0.9237823486328125,-0.0331268310546875,0.0334320068359375
1772455351362177300,0.99317724609375,-0.9625701904296875,-0.0255279541015625,-0.0076446533203125
1772455351372195600,1.003195556640625,-1.00579833984375,-0.0171051025390625,-0.0490570068359375
1772455351382213400,1.01321337890625,-1.0562286376953125,-0.012115478515625,-0.0748443603515625
1772455351392231400,1.0232314453125,-1.0821990966796875,-0.0005340576171875,-0.09222412109375
1772455351402249500,1.03324951171875,-1.088531494140625,0.0157470703125,-0.093231201171875
1772455351412266500,1.0432666015625,-1.085113525390625,0.0288543701171875,-0.0795745849609375
1772455351422284300,1.0532841796875,-1.07080078125,0.0331878662109375,-0.057373046875
1772455351432302600,1.063302490234375,-1.045623779296875,0.03094482421875,-0.0295867919921875
1772455351442320400,1.0733203125,-1.02239990234375,0.024505615234375,-0.003509521484375
1772455351452338400,1.08333837890625,-1.001007080078125,0.019378662109375,0.0149078369140625
1772455351462356500,1.0933564453125,-0.990447998046875,0.02398681640625,0.0183563232421875
1772455351472374500,1.10337451171875,-0.988128662109375,0.0285491943359375,0.0089263916015625
1772455351482392600,1.113392578125,-0.9866943359375,0.0333099365234375,-0.0038299560546875
1772455351492409300,1.123409423828125,-0.993927001953125,0.0297393798828125,-0.0135498046875
1772455351502427600,1.133427734375,-1.00946044921875,0.024749755859375,-0.0141143798828125
1772455351512445400,1.143445556640625,-1.027801513671875,0.018218994140625,-0.0180816650390625
1772455351522463500,1.15346337890625,-1.0406494140625,0.015289306640625,-0.029571533203125
1772455351532481500,1.1634814453125,-1.042938232421875,0.01885986328125,-0.031707763671875
1772455351542499600,1.17349951171875,-1.0334320068359375,0.0238189697265625,-0.0237579345703125
1772455351552517400,1.183517333984375,-1.020721435546875,0.0237274169921875,-0.0098419189453125
1772455351562535400,1.193535400390625,-1.0043792724609375,0.0213165283203125,0.002471923828125
1772455351572552400,1.203552490234375,-0.9921112060546875,0.016998291015625,0.00921630859375
1772455351582570500,1.213570556640625,-0.984619140625,0.014129638671875,0.009613037109375
1772455351592588500,1.223588623046875,-0.9819488525390625,0.01190185546875,-0.00244140625
1772455351602606600,1.233606689453125,-0.9858856201171875,0.007904052734375,-0.01202392578125
1772455351612624400,1.243624267578125,-0.9925994873046875,0.007110595703125,-0.0249176025390625
1772455351622642400,1.253642333984375,-0.993255615234375,0.004730224609375,-0.03466796875
1772455351632660500,1.263660400390625,-0.98797607421875,0.004364013671875,-0.03594970703125
1772455351642678500,1.273678466796875,-0.986541748046875,0.0050811767578125,-0.0282135009765625
1772455351652695300,1.2836953125,-0.9848175048828125,0.0102386474609375,-0.0162811279296875
1772455351662713600,1.293713623046875,-0.985076904296875,0.0129547119140625,-0.0119476318359375
1772455351672731400,1.3037314453125,-0.9804840087890625,0.016082763671875,-0.0108642578125
1772455351682749400,1.31374951171875,-0.9793548583984375,0.0182342529296875,-0.004913330078125
1772455351692767500,1.323767578125,-0.9767608642578125,0.0181121826171875,-0.0014190673828125
1772455351702785500,1.33378564453125,-0.9763946533203125,0.014617919921875,-0.0006103515625
1772455351712803300,1.34380322265625,-0.981597900390625,0.0102081298828125,-0.00140380859375
1772455351722820600,1.353820556640625,-0.98626708984375,0.0061187744140625,-0.00860595703125
1772455351732838400,1.36383837890625,-0.9982452392578125,0.009979248046875,-0.0159454345703125
1772455351742856400,1.3738564453125,-1.00982666015625,0.01226806640625,-0.0227508544921875
1772455351752874500,1.38387451171875,-1.0096588134765625,0.017333984375,-0.020111083984375
1772455351762892500,1.393892578125,-1.007781982421875,0.018035888671875,-0.0078887939453125
1772455351772910300,1.403910400390625,-1.0077667236328125,0.0166778564453125,0.004608154296875
1772455351782928400,1.413928466796875,-1.0080718994140625,0.0168914794921875,0.0086669921875
1772455351792946700,1.42394677734375,-1.0058441162109375,0.0177764892578125,0.006195068359375
1772455351802963500,1.43396337890625,-1.0035247802734375,0.0154571533203125,0.0048980712890625
1772455351812981200,1.443981201171875,-0.9978179931640625,0.008819580078125,0.007781982421875
1772455351822999600,1.45399951171875,-0.9934539794921875,0.0027618408203125,0.008392333984375
1772455351833017300,1.464017333984375,-0.992645263671875,-0.00372314453125,0.0048370361328125
1772455351843035400,1.474035400390625,-0.989288330078125,-0.004364013671875,0.00677490234375
1772455351853053700,1.4840537109375,-0.980926513671875,-0.00286865234375,0.00933837890625
1772455351863071500,1.494071533203125,-0.9707183837890625,-0.0041351318359375,0.0176544189453125
1772455351873089500,1.504089599609375,-0.9640350341796875,-0.009735107421875,0.0282135009765625
1772455351883106600,1.5141064453125,-0.9672088623046875,-0.0127105712890625,0.031036376953125
1772455351893124600,1.52412451171875,-0.9716796875,-0.010711669921875,0.026580810546875
1772455351903142400,1.534142333984375,-0.9725799560546875,-0.0078887939453125,0.01666259765625
1772455351913160400,1.544160400390625,-0.9695281982421875,-0.00408935546875,0.0120697021484375
1772455351923178500,1.554178466796875,-0.9682769775390625,-0.0030670166015625,0.019378662109375
1772455351933196500,1.564196533203125,-0.96673583984375,-0.0058135986328125,0.03289794921875
1772455351943214300,1.57421435546875,-0.9703216552734375,-0.0069427490234375,0.048492431640625
1772455351953232600,1.584232666015625,-0.9876708984375,-0.0095672607421875,0.0570068359375
1772455351963249400,1.59424951171875,-1.014404296875,-0.0048980712890625,0.0578765869140625
1772455351973267500,1.604267333984375,-1.0446014404296875,0.003021240234375,0.050537109375
1772455351983285500,1.614285400390625,-1.0741424560546875,0.0119476318359375,0.037017822265625
1772455351993303600,1.624303466796875,-1.09454345703125,0.02056884765625,0.0233306884765625
1772455352003321300,1.6343212890625,-1.099609375,0.0279998779296875,0.011199951171875
1772455352013339400,1.64433935546875,-1.092681884765625,0.0252685546875,0.009857177734375
1772455352023357400,1.654357421875,-1.0775146484375,0.0196990966796875,0.0164337158203125
1772455352033375500,1.66437548828125,-1.05267333984375,0.01800537109375,0.0218963623046875
1772455352043392500,1.674392578125,-1.029449462890625,0.0202789306640625,0.0218505859375
1772455352053410600,1.68441064453125,-1.015411376953125,0.0179290771484375,0.0114593505859375
1772455352063428400,1.694428466796875,-1.0059967041015625,0.010345458984375,-0.010498046875
1772455352073446400,1.7044462890625,-0.9993438720703125,0.00201416015625,-0.0251312255859375
1772455352083464400,1.71446435546875,-0.995269775390625,0.0040283203125,-0.0280609130859375
1772455352093482500,1.724482421875,-1.00103759765625,0.01190185546875,-0.0223846435546875
1772455352103500300,1.734500244140625,-1.001800537109375,0.01104736328125,-0.01287841796875
1772455352113518600,1.7445185546875,-0.99139404296875,0.009521484375,-0.002471923828125
1772455352123535400,1.754535400390625,-0.980010986328125,0.0087890625,0.001983642578125
1772455352133553400,1.764553466796875,-0.975860595703125,0.0024566650390625,-0.0022125244140625
1772455352143571500,1.774571533203125,-0.9719696044921875,0.001708984375,-0.0020294189453125
1772455352153589500,1.784589599609375,-0.9702911376953125,0.005950927734375,-0.0028228759765625
1772455352163607300,1.794607177734375,-0.9659576416015625,0.0086669921875,-0.0059356689453125
1772455352173625300,1.804625244140625,-0.9644317626953125,0.0106201171875,-0.007537841796875
1772455352183643600,1.8146435546875,-0.9617462158203125,0.00836181640625,-0.0087890625
1772455352193661400,1.824661376953125,-0.956207275390625,0.0020904541015625,-0.0124359130859375
1772455352203678500,1.834678466796875,-0.952789306640625,-0.0011749267578125,-0.0171051025390625
1772455352213696500,1.844696533203125,-0.9528656005859375,-0.000457763671875,-0.02838134765625
1772455352223714300,1.85471435546875,-0.9283905029296875,0.0079193115234375,-0.0350189208984375
1772455352233732000,1.864732177734375,-0.92529296875,-0.0077362060546875,-0.0343170166015625
1772455352243750400,1.87475048828125,-0.9240570068359375,-0.0242462158203125,-0.0368499755859375
1772455352253768200,1.884768310546875,-0.9165191650390625,-0.032318115234375,-0.0335845947265625
1772455352263786200,1.8947861328125,-0.9239044189453125,-0.0257110595703125,-0.0212860107421875
1772455352273804300,1.90480419921875,-0.9416046142578125,-0.0089111328125,-0.0196380615234375
1772455352283821300,1.9148212890625,-0.987060546875,0.00726318359375,-0.018310546875
1772455352293839000,1.924839111328125,-1.0352020263671875,0.0146942138671875,-0.01104736328125
1772455352303857400,1.934857421875,-1.0496063232421875,-0.009490966796875,0.009521484375
1772455352313875200,1.944875244140625,-1.02008056640625,-0.0114898681640625,0.0134429931640625
1772455352323893200,1.954893310546875,-0.9733123779296875,0.001220703125,0.020263671875
1772455352333911300,1.964911376953125,-0.939971923828125,-0.0092010498046875,0.035919189453125
1772455352343929300,1.974929443359375,-0.9311676025390625,-0.0318603515625,0.0476226806640625
1772455352353947400,1.984947509765625,-0.9399871826171875,-0.04180908203125,0.0430145263671875
1772455352363964400,1.99496435546875,-0.9642333984375,-0.03826904296875,0.023162841796875
1772455352373982200,2.004982177734375,-0.994781494140625,-0.028594970703125,-0.0093994140625
1772455352384000300,2.015000244140625,-1.019622802734375,-0.023284912109375,-0.0417633056640625
1772455352394018300,2.025018310546875,-1.0294647216796875,-0.023712158203125,-0.057098388671875
1772455352404036400,2.035036376953125,-1.02203369140625,-0.023834228515625,-0.0552978515625
1772455352414054400,2.045054443359375,-1.0045623779296875,-0.0298614501953125,-0.0363311767578125
1772455352424072200,2.055072265625,-0.9901275634765625,-0.037078857421875,-0.009857177734375
1772455352434090500,2.065090576171875,-0.985626220703125,-0.0385589599609375,0.013031005859375
1772455352444107300,2.075107177734375,-0.9991302490234375,-0.033294677734375,0.0215911865234375
1772455352454125300,2.085125244140625,-1.0208282470703125,-0.022552490234375,0.0182647705078125
1772455352464143400,2.095143310546875,-1.0390167236328125,-0.0095977783203125,0.013763427734375
1772455352474161400,2.105161376953125,-1.0518798828125,-0.0031280517578125,0.011871337890625
1772455352484179200,2.11517919921875,-1.068267822265625,0.00103759765625,0.0123748779296875
1772455352494197200,2.125197265625,-1.08184814453125,0.003173828125,0.01202392578125
1772455352504215300,2.13521533203125,-1.0819091796875,0.0065765380859375,0.0078582763671875
1772455352514233300,2.1452333984375,-1.0605926513671875,0.01165771484375,0.0112457275390625
1772455352524250400,2.15525048828125,-1.0351715087890625,0.014434814453125,0.0223388671875
1772455352534268400,2.165268310546875,-1.0118255615234375,0.0162811279296875,0.0407867431640625
1772455352544286200,2.1752861328125,-0.995941162109375,0.00738525390625,0.0516204833984375
1772455352554304300,2.18530419921875,-0.98095703125,-0.0030670166015625,0.0496063232421875
1772455352564322300,2.195322265625,-0.9632720947265625,-0.010650634765625,0.04351806640625
1772455352574340400,2.20534033203125,-0.94775390625,-0.02545166015625,0.0319366455078125
1772455352584358100,2.215358154296875,-0.9386138916015625,-0.03778076171875,0.0233917236328125
1772455352594376400,2.22537646484375,-0.937835693359375,-0.0478515625,0.01409912109375
1772455352604393200,2.235393310546875,-0.9353790283203125,-0.0536651611328125,0.0046539306640625
1772455352614411300,2.245411376953125,-0.93585205078125,-0.0501861572265625,0.0010223388671875
1772455352624429300,2.25542919921875,-0.94451904296875,-0.045196533203125,-0.00042724609375
1772455352634447400,2.265447265625,-0.9574737548828125,-0.0423736572265625,0.0057220458984375
1772455352644465200,2.275465087890625,-0.9716644287109375,-0.0413360595703125,0.0128173828125
1772455352654483200,2.285483154296875,-0.98944091796875,-0.04107666015625,0.0145111083984375
1772455352664501200,2.295501220703125,-1.009063720703125,-0.033233642578125,0.0141143798828125
1772455352674519300,2.305519287109375,-1.03057861328125,-0.0260467529296875,0.017608642578125
1772455352684536300,2.315536376953125,-1.05419921875,-0.0186767578125,0.0184173583984375
1772455352694554400,2.325554443359375,-1.080169677734375,-0.0141143798828125,0.0152587890625
1772455352704572200,2.335572265625,-1.093597412109375,-0.012664794921875,0.01129150390625
1772455352714590200,2.345590087890625,-1.0954742431640625,-0.006378173828125,0.0040740966796875
1772455352724608300,2.355608154296875,-1.08941650390625,0.0001373291015625,0.000579833984375
1772455352734626300,2.365626220703125,-1.067108154296875,0.0014801025390625,0.0013885498046875
1772455352744644400,2.375644287109375,-1.0329132080078125,-0.0001373291015625,0.0079193115234375
1772455352754662400,2.385662353515625,-1.0003662109375,-0.0070648193359375,0.0182952880859375
1772455352764679200,2.39567919921875,-0.973907470703125,-0.014739990234375,0.0293426513671875
1772455352774697200,2.405697265625,-0.9533843994140625,-0.0248260498046875,0.0334930419921875
1772455352784715500,2.415715576171875,-0.944183349609375,-0.034942626953125,0.028228759765625
1772455352794733300,2.4257333984375,-0.9390716552734375,-0.0448760986328125,0.0145416259765625
1772455352804751400,2.43575146484375,-0.9385986328125,-0.0549774169921875,-0.00054931640625
1772455352814769200,2.44576904296875,-0.9410400390625,-0.065704345703125,-0.0175628662109375
1772455352824787500,2.455787353515625,-0.95245361328125,-0.0771942138671875,-0.02972412109375
1772455352834805200,2.46580517578125,-0.9648895263671875,-0.083160400390625,-0.037445068359375
1772455352844822500,2.475822509765625,-0.9770355224609375,-0.08575439453125,-0.04522705078125
1772455352854840300,2.48584033203125,-0.9894866943359375,-0.0833740234375,-0.0521087646484375
1772455352864858400,2.4958583984375,-1.0019073486328125,-0.08251953125,-0.053985595703125
1772455352874876200,2.505876220703125,-1.011138916015625,-0.079132080078125,-0.0556182861328125
1772455352884894500,2.51589453125,-1.0134735107421875,-0.0717926025390625,-0.0553131103515625
1772455352894912300,2.525912353515625,-1.019317626953125,-0.0647430419921875,-0.053680419921875
1772455352904930300,2.535930419921875,-1.0234832763671875,-0.057373046875,-0.050933837890625
1772455352914948400,2.5459482421875,-1.0228424072265625,-0.0528106689453125,-0.04595947265625
1772455352924965400,2.55596533203125,-1.024383544921875,-0.05328369140625,-0.03924560546875
1772455352934983200,2.565983154296875,-1.0246124267578125,-0.05682373046875,-0.0390777587890625
1772455352945001500,2.57600146484375,-1.0245513916015625,-0.0626678466796875,-0.0386810302734375
1772455352955019300,2.586019287109375,-1.0231170654296875,-0.0696868896484375,-0.0440521240234375
1772455352965037300,2.596037353515625,-1.0214080810546875,-0.0778350830078125,-0.0508575439453125
1772455352975055000,2.60605517578125,-1.0179595947265625,-0.0836181640625,-0.0542449951171875
1772455352985073400,2.616073486328125,-1.0116119384765625,-0.0872802734375,-0.0511016845703125
1772455352995091200,2.62609130859375,-1.0068511962890625,-0.094085693359375,-0.037445068359375
1772455353005108500,2.6361083984375,-1.0007781982421875,-0.100067138671875,-0.0196533203125
1772455353015126300,2.646126220703125,-0.9984893798828125,-0.09893798828125,-0.0144500732421875
1772455353025144300,2.656144287109375,-0.9974822998046875,-0.0936737060546875,-0.0145263671875
1772455353035162000,2.666162109375,-0.9985504150390625,-0.0905609130859375,-0.0178985595703125
1772455353045180400,2.676180419921875,-1.0073699951171875,-0.090423583984375,-0.014892578125
1772455353055198200,2.6861982421875,-1.0217437744140625,-0.0958709716796875,-0.016571044921875
1772455353065216300,2.69621630859375,-1.032867431640625,-0.093414306640625,-0.0222930908203125
1772455353075234300,2.706234375,-1.03521728515625,-0.0830535888671875,-0.0270843505859375
1772455353085251300,2.716251220703125,-1.02886962890625,-0.0721282958984375,-0.033477783203125
1772455353095269000,2.72626904296875,-1.0167694091796875,-0.06640625,-0.029693603515625
1772455353105287400,2.736287353515625,-1.00390625,-0.071868896484375,-0.0189971923828125
1772455353115305200,2.74630517578125,-0.9914093017578125,-0.082794189453125,-0.0059051513671875
1772455353125323300,2.7563232421875,-0.9800872802734375,-0.088531494140625,0.0039215087890625
1772455353135341300,2.76634130859375,-0.97119140625,-0.0894317626953125,0.0049591064453125
1772455353145359400,2.776359375,-0.9642333984375,-0.0825042724609375,-0.000579833984375
1772455353155377400,2.78637744140625,-0.9571990966796875,-0.075347900390625,-0.00360107421875
1772455353165394400,2.79639453125,-0.9565582275390625,-0.0755462646484375,-0.00537109375
1772455353175412200,2.806412109375,-0.9595947265625,-0.083404541015625,-0.0067291259765625
1772455353185430300,2.81643017578125,-0.965057373046875,-0.09478759765625,-0.011260986328125
1772455353195448300,2.8264482421875,-0.9742584228515625,-0.104461669921875,-0.01556396484375
1772455353205466400,2.83646630859375,-0.98468017578125,-0.1072998046875,-0.024566650390625
1772455353215484400,2.846484375,-0.98553466796875,-0.104827880859375,-0.029266357421875
1772455353225502200,2.856502197265625,-0.978790283203125,-0.105743408203125,-0.0303192138671875
1772455353235520300,2.866520263671875,-0.9665374755859375,-0.1078948974609375,-0.02667236328125
1772455353245537300,2.876537353515625,-0.9551544189453125,-0.1148529052734375,-0.0196075439453125
1772455353255555300,2.886555419921875,-0.9458465576171875,-0.1208648681640625,-0.01654052734375
1772455353265573400,2.896573486328125,-0.9368896484375,-0.122344970703125,-0.016876220703125
1772455353275591400,2.90659130859375,-0.9274749755859375,-0.12158203125,-0.0206146240234375
1772455353285609200,2.916609130859375,-0.9190826416015625,-0.1166229248046875,-0.0251617431640625
1772455353295627300,2.926627197265625,-0.9138031005859375,-0.114013671875,-0.0280303955078125
1772455353305645300,2.936645263671875,-0.9185791015625,-0.11370849609375,-0.0261077880859375
1772455353315663400,2.946663330078125,-0.927215576171875,-0.116973876953125,-0.026824951171875
1772455353325681400,2.956681396484375,-0.9429931640625,-0.11993408203125,-0.0323028564453125
1772455353335698400,2.966698486328125,-0.9561920166015625,-0.1193389892578125,-0.038177490234375
1772455353345716200,2.97671630859375,-0.96710205078125,-0.1180877685546875,-0.0395355224609375
1772455353355734300,2.986734375,-0.98040771484375,-0.11663818359375,-0.0388336181640625
1772455353365752300,2.99675244140625,-0.9974822998046875,-0.1136474609375,-0.0373992919921875
1772455353375770400,3.006770263671875,-1.010498046875,-0.111907958984375,-0.0378570556640625
1772455353385788400,3.016788330078125,-1.0220947265625,-0.1071319580078125,-0.0370025634765625
1772455353395806200,3.02680615234375,-1.02996826171875,-0.104583740234375,-0.0343017578125
1772455353405824500,3.036824462890625,-1.03277587890625,-0.105316162109375,-0.0298309326171875
1772455353415841300,3.04684130859375,-1.0290985107421875,-0.10687255859375,-0.0281524658203125
1772455353425859300,3.056859375,-1.0157318115234375,-0.105712890625,-0.027740478515625
1772455353435877400,3.06687744140625,-0.999176025390625,-0.101593017578125,-0.032257080078125
1772455353445895400,3.0768955078125,-0.983612060546875,-0.10040283203125,-0.034637451171875
1772455353455913200,3.086913330078125,-0.9810333251953125,-0.103363037109375,-0.0372772216796875
1772455353465931500,3.096931640625,-0.993682861328125,-0.111236572265625,-0.04345703125
1772455353475949300,3.10694921875,-1.0204315185546875,-0.115936279296875,-0.0561065673828125
1772455353485967400,3.11696728515625,-1.059112548828125,-0.1099700927734375,-0.0709075927734375
1772455353495984400,3.126984375,-1.094329833984375,-0.0934295654296875,-0.07940673828125
1772455353506002400,3.13700244140625,-1.1305694580078125,-0.0707244873046875,-0.0793304443359375
1772455353516020200,3.147020263671875,-1.158905029296875,-0.049468994140625,-0.063507080078125
1772455353526038500,3.15703857421875,-1.172271728515625,-0.0279541015625,-0.029266357421875
1772455353536056300,3.167056396484375,-1.177520751953125,-0.01031494140625,0.0037841796875
1772455353546074400,3.177074462890625,-1.16204833984375,0.015625,0.02581787109375
1772455353556092200,3.187092041015625,-1.1303253173828125,0.0377960205078125,0.0469512939453125
1772455353566110500,3.1971103515625,-1.088897705078125,0.04937744140625,0.05828857421875
1772455353576127200,3.207127197265625,-1.0419158935546875,0.0459136962890625,0.0653533935546875
1772455353586145300,3.217145263671875,-1.0001220703125,0.0308990478515625,0.0650787353515625
1772455353596163300,3.227163330078125,-0.966156005859375,0.0053558349609375,0.0566864013671875
1772455353606181400,3.237181396484375,-0.937347412109375,-0.018768310546875,0.037139892578125
1772455353616199200,3.24719921875,-0.913421630859375,-0.04345703125,0.0121307373046875
1772455353626217500,3.257217529296875,-0.8956298828125,-0.0613555908203125,-0.013946533203125
1772455353636235300,3.2672353515625,-0.884185791015625,-0.0709228515625,-0.0305938720703125
1772455353646253300,3.27725341796875,-0.8819580078125,-0.077178955078125,-0.0388946533203125
1772455353656270300,3.287270263671875,-0.8853912353515625,-0.075225830078125,-0.03570556640625
1772455353666288400,3.297288330078125,-0.9003143310546875,-0.0675201416015625,-0.0179290771484375
1772455353676306200,3.30730615234375,-0.9250640869140625,-0.052978515625,0.0066680908203125
1772455353686324500,3.317324462890625,-0.9601287841796875,-0.0397491455078125,0.0201873779296875
1772455353696342300,3.32734228515625,-1.0007781982421875,-0.030181884765625,0.0245361328125
1772455353706360300,3.3373603515625,-1.0414581298828125,-0.0166473388671875,0.0331268310546875
1772455353716378400,3.34737841796875,-1.0706787109375,0.0062713623046875,0.042816162109375
1772455353726396400,3.357396484375,-1.0827789306640625,0.034027099609375,0.0563812255859375
1772455353736414500,3.36741455078125,-1.07415771484375,0.0608367919921875,0.07415771484375
1772455353746431200,3.37743115234375,-1.05072021484375,0.0817108154296875,0.0986175537109375
1772455353756449300,3.38744921875,-1.02630615234375,0.0946197509765625,0.1218719482421875
1772455353766467300,3.39746728515625,-1.0019989013671875,0.10223388671875,0.14599609375
1772455353776485400,3.4074853515625,-0.982574462890625,0.0984344482421875,0.161590576171875
1772455353786503400,3.41750341796875,-0.965972900390625,0.0924224853515625,0.1564788818359375
1772455353796521500,3.427521484375,-0.9561920166015625,0.0803375244140625,0.140838623046875
1772455353806539300,3.437539306640625,-0.9466400146484375,0.067718505859375,0.121612548828125
1772455353816557300,3.447557373046875,-0.9357147216796875,0.0577545166015625,0.1012115478515625
1772455353826574300,3.45757421875,-0.9219512939453125,0.0447235107421875,0.0897216796875
1772455353836592400,3.46759228515625,-0.9087982177734375,0.0272064208984375,0.0853424072265625
1772455353846610400,3.4776103515625,-0.9017791748046875,0.0122222900390625,0.0819244384765625
1772455353856628500,3.48762841796875,-0.9035186767578125,0.00091552734375,0.07489013671875
1772455353866646300,3.497646240234375,-0.9068450927734375,-0.0051422119140625,0.0648345947265625
1772455353876664300,3.507664306640625,-0.917999267578125,-0.013458251953125,0.05615234375
1772455353886682400,3.517682373046875,-0.934478759765625,-0.0194244384765625,0.050445556640625
1772455353896700400,3.527700439453125,-0.9558868408203125,-0.02215576171875,0.05059814453125
1772455353906717200,3.53771728515625,-0.97259521484375,-0.019775390625,0.0506744384765625
1772455353916735500,3.547735595703125,-0.9883270263671875,-0.0103912353515625,0.05328369140625
1772455353926753300,3.557753173828125,-1.0026397705078125,-0.0042572021484375,0.061737060546875
1772455353936771300,3.567771240234375,-1.011749267578125,-0.0025177001953125,0.0705108642578125
1772455353946789400,3.577789306640625,-1.0125579833984375,-0.0020904541015625,0.074127197265625
1772455353956807400,3.587807373046875,-1.007904052734375,-0.0073699951171875,0.0799560546875
1772455353966825200,3.5978251953125,-0.9923095703125,-0.0114288330078125,0.08563232421875
1772455353976843300,3.60784326171875,-0.9696197509765625,-0.0182342529296875,0.085113525390625
1772455353986861300,3.617861328125,-0.9434356689453125,-0.02783203125,0.0874481201171875
1772455353996878300,3.62787841796875,-0.921142578125,-0.041900634765625,0.0904541015625
1772455354006896400,3.637896484375,-0.902496337890625,-0.056365966796875,0.093017578125
1772455354016914400,3.64791455078125,-0.893218994140625,-0.0683746337890625,0.0956573486328125
1772455354026932200,3.65793212890625,-0.892425537109375,-0.0764312744140625,0.09259033203125
1772455354036950300,3.6679501953125,-0.9017486572265625,-0.0821533203125,0.0862274169921875
1772455354046968300,3.67796826171875,-0.9156646728515625,-0.0823822021484375,0.0775146484375
1772455354056986400,3.687986328125,-0.93084716796875,-0.08013916015625,0.068603515625
1772455354067004400,3.69800439453125,-0.9460906982421875,-0.07928466796875,0.065673828125
1772455354077021400,3.708021484375,-0.960479736328125,-0.0820465087890625,0.0646514892578125
1772455354087039200,3.718039306640625,-0.97015380859375,-0.086029052734375,0.066986083984375
1772455354097057300,3.728057373046875,-0.9813385009765625,-0.088775634765625,0.06756591796875
1772455354107075300,3.738075439453125,-0.9935455322265625,-0.0955047607421875,0.06744384765625
1772455354117093400,3.74809326171875,-1.0105743408203125,-0.098480224609375,0.0657806396484375
1772455354127111400,3.758111328125,-1.02374267578125,-0.1009674072265625,0.05908203125
1772455354137129200,3.768129150390625,-1.034881591796875,-0.106597900390625,0.051971435546875
1772455354147147500,3.7781474609375,-1.0416717529296875,-0.113922119140625,0.04754638671875
1772455354157164300,3.788164306640625,-1.0420684814453125,-0.1193084716796875,0.045867919921875
1772455354167182300,3.798182373046875,-1.0417938232421875,-0.1259613037109375,0.0477447509765625
1772455354177200400,3.808200439453125,-1.044158935546875,-0.130035400390625,0.0521392822265625
1772455354187218400,3.818218505859375,-1.0455474853515625,-0.129913330078125,0.056121826171875
1772455354197236200,3.828236328125,-1.0468902587890625,-0.127593994140625,0.06005859375
1772455354207254500,3.838254638671875,-1.04620361328125,-0.1240692138671875,0.063507080078125
1772455354217272300,3.848272216796875,-1.043701171875,-0.1223602294921875,0.0632781982421875
1772455354227289600,3.85828955078125,-1.038482666015625,-0.1191558837890625,0.063079833984375
1772455354237308000,3.868307861328125,-1.0303802490234375,-0.1177215576171875,0.0587158203125
1772455354247324700,3.87832470703125,-1.0247344970703125,-0.1141204833984375,0.0585174560546875
1772455354257342500,3.888342529296875,-1.0211334228515625,-0.110565185546875,0.05364990234375
1772455354267360800,3.89836083984375,-1.014495849609375,-0.1075439453125,0.051055908203125
1772455354277378600,3.908378662109375,-1.010284423828125,-0.102081298828125,0.045623779296875
1772455354287396600,3.918396728515625,-1.0054168701171875,-0.097900390625,0.0418243408203125
1772455354297414700,3.92841455078125,-1.0003814697265625,-0.0967864990234375,0.041412353515625
1772455354307432700,3.9384326171875,-1.0015716552734375,-0.092803955078125,0.0424346923828125
1772455354317450800,3.94845068359375,-1.0085906982421875,-0.08740234375,0.0334014892578125
1772455354327467800,3.9584677734375,-1.0193939208984375,-0.082855224609375,0.02215576171875
1772455354337485600,3.968485595703125,-1.035308837890625,-0.082733154296875,0.015289306640625
1772455354347503600,3.978503662109375,-1.0550384521484375,-0.0824737548828125,0.0124359130859375
1772455354357521700,3.988521728515625,-1.07513427734375,-0.0775909423828125,0.0121002197265625
1772455354367539700,3.998539794921875,-1.0933685302734375,-0.0662841796875,0.0083160400390625
1772455354377557800,4.008557861328125,-1.1069488525390625,-0.049591064453125,0.0040130615234375
1772455354387575600,4.018575439453125,-1.1179656982421875,-0.031341552734375,0.0069580078125
1772455354397593900,4.02859375,-1.126800537109375,-0.013763427734375,0.0157012939453125
1772455354407611600,4.038611572265625,-1.1388702392578125,0.0020904541015625,0.0259552001953125
1772455354417628700,4.048628662109375,-1.1461029052734375,0.0192718505859375,0.0304718017578125
1772455354427646700,4.058646728515625,-1.149444580078125,0.0338287353515625,0.032379150390625
1772455354437664800,4.068664794921875,-1.1474456787109375,0.0505218505859375,0.0335693359375
1772455354447682600,4.0786826171875,-1.1331634521484375,0.0634307861328125,0.0355072021484375
1772455354457700600,4.08870068359375,-1.1113433837890625,0.0716400146484375,0.0391998291015625
1772455354467718700,4.09871875,-1.083526611328125,0.0741729736328125,0.0413970947265625
1772455354477736700,4.10873681640625,-1.0549163818359375,0.071319580078125,0.0360260009765625
1772455354487754500,4.11875439453125,-1.02911376953125,0.06451416015625,0.0240631103515625
1772455354497771800,4.128771728515625,-1.00555419921875,0.0574188232421875,0.0085296630859375
1772455354507789600,4.13878955078125,-0.978515625,0.04779052734375,-0.0065460205078125
1772455354517807600,4.1488076171875,-0.95294189453125,0.03411865234375,-0.0204620361328125
1772455354527825700,4.15882568359375,-0.92681884765625,0.0221405029296875,-0.0342254638671875
1772455354537843700,4.16884375,-0.8983154296875,0.0192108154296875,-0.0435028076171875
1772455354547861500,4.178861572265625,-0.8673095703125,0.019317626953125,-0.052032470703125
1772455354557879800,4.1888798828125,-0.8434600830078125,0.019439697265625,-0.0602264404296875
1772455354567897600,4.198897705078125,-0.8242950439453125,0.014007568359375,-0.069976806640625
1772455354577914600,4.20891455078125,-0.8135986328125,0.00518798828125,-0.074310302734375
1772455354587932700,4.2189326171875,-0.814910888671875,-0.0086822509765625,-0.0768585205078125
1772455354597950700,4.22895068359375,-0.832183837890625,-0.0211334228515625,-0.078125
1772455354607968500,4.238968505859375,-0.8655548095703125,-0.0296173095703125,-0.079925537109375
1772455354617986600,4.248986572265625,-0.908935546875,-0.0330963134765625,-0.084259033203125
1772455354628004600,4.259004638671875,-0.955596923828125,-0.029449462890625,-0.09442138671875
1772455354638022700,4.269022705078125,-1.0083770751953125,-0.0243988037109375,-0.103973388671875
1772455354648040700,4.279040771484375,-1.056060791015625,-0.0124053955078125,-0.1022491455078125
1772455354658058800,4.289058837890625,-1.097076416015625,-0.0025177001953125,-0.0965728759765625
1772455354668075500,4.299075439453125,-1.1288909912109375,0.00396728515625,-0.084228515625
1772455354678093600,4.309093505859375,-1.1461639404296875,0.010162353515625,-0.06689453125
1772455354688111900,4.31911181640625,-1.14727783203125,0.0168304443359375,-0.0484161376953125
1772455354698129700,4.329129638671875,-1.1346588134765625,0.017822265625,-0.03399658203125
1772455354708147700,4.339147705078125,-1.1033782958984375,0.014129638671875,-0.0209503173828125
1772455354718165800,4.349165771484375,-1.0619659423828125,0.0023193359375,-0.017852783203125
1772455354728183800,4.359183837890625,-1.016876220703125,-0.0180511474609375,-0.018310546875
1772455354738201600,4.36920166015625,-0.975189208984375,-0.0429534912109375,-0.021942138671875
1772455354748219000,4.379218994140625,-0.93426513671875,-0.065399169921875,-0.0305633544921875
1772455354758236700,4.389236572265625,-0.8895416259765625,-0.0835113525390625,-0.0399932861328125
1772455354768254700,4.399254638671875,-0.851837158203125,-0.1021575927734375,-0.0484619140625
1772455354778272500,4.4092724609375,-0.824554443359375,-0.1212615966796875,-0.0523223876953125
1772455354788290800,4.419290771484375,-0.8048553466796875,-0.1353759765625,-0.053558349609375
1772455354798308600,4.42930859375,-0.798095703125,-0.1442718505859375,-0.0525970458984375
1772455354808326700,4.43932666015625,-0.7975921630859375,-0.1472625732421875,-0.0542755126953125
1772455354818344700,4.4493447265625,-0.8112945556640625,-0.147064208984375,-0.0576324462890625
1772455354828362800,4.45936279296875,-0.832733154296875,-0.14984130859375,-0.057525634765625
1772455354838379500,4.469379638671875,-0.8642730712890625,-0.1496429443359375,-0.0561370849609375
1772455354848397800,4.479397705078125,-0.9014129638671875,-0.1459197998046875,-0.0557861328125
1772455354858415600,4.48941552734375,-0.9373321533203125,-0.135955810546875,-0.0480804443359375
1772455354868433700,4.49943359375,-0.96990966796875,-0.1262969970703125,-0.0386810302734375
1772455354878451700,4.50945166015625,-1.001739501953125,-0.1160736083984375,-0.02874755859375
1772455354888469800,4.5194697265625,-1.0240631103515625,-0.1060028076171875,-0.0165252685546875
1772455354898487600,4.529487548828125,-1.036773681640625,-0.0974884033203125,-0.0085601806640625
1772455354908505600,4.539505615234375,-1.0442657470703125,-0.09228515625,-0.0081787109375
1772455354918524000,4.54952392578125,-1.046539306640625,-0.0946807861328125,-0.01177978515625
1772455354928540700,4.559540771484375,-1.03778076171875,-0.102386474609375,-0.0094757080078125
1772455354938558500,4.569558349609375,-1.0135650634765625,-0.107330322265625,-0.0081024169921875
1772455354948576800,4.57957666015625,-0.9771881103515625,-0.1150054931640625,-0.0053253173828125
1772455354958594600,4.589594482421875,-0.94158935546875,-0.1226959228515625,0.0008392333984375
1772455354968612600,4.599612548828125,-0.91168212890625,-0.1302947998046875,0.005767822265625
1772455354978630700,4.609630615234375,-0.892242431640625,-0.1356201171875,0.011932373046875
1772455354988648700,4.619648681640625,-0.885345458984375,-0.14068603515625,0.0228271484375
1772455354998666800,4.629666748046875,-0.892852783203125,-0.14666748046875,0.0278472900390625
1772455355008683800,4.639683837890625,-0.9170684814453125,-0.1574249267578125,0.026947021484375
1772455355018701600,4.64970166015625,-0.959197998046875,-0.164031982421875,0.01348876953125
1772455355028719600,4.6597197265625,-1.0018310546875,-0.1620330810546875,-0.0033416748046875
1772455355038737700,4.669737548828125,-1.0369873046875,-0.157501220703125,-0.0238037109375
1772455355048755700,4.679755615234375,-1.0687408447265625,-0.15167236328125,-0.0335693359375
1772455355058773800,4.689773681640625,-1.090606689453125,-0.142669677734375,-0.0316009521484375
1772455355068791600,4.69979150390625,-1.1009063720703125,-0.1349639892578125,-0.0211334228515625
1772455355078809900,4.709809814453125,-1.0955047607421875,-0.126953125,-0.0085296630859375
1772455355088826600,4.71982666015625,-1.07708740234375,-0.1159210205078125,0.000823974609375
1772455355098844700,4.7298447265625,-1.051239013671875,-0.10845947265625,0.01287841796875
1772455355108862700,4.73986279296875,-1.0308074951171875,-0.106109619140625,0.0225982666015625
1772455355118880800,4.749880859375,-1.0264892578125,-0.11322021484375,0.0262451171875
1772455355128898600,4.759898681640625,-1.0411224365234375,-0.1258392333984375,0.016204833984375
1772455355138916600,4.76991650390625,-1.0623321533203125,-0.131103515625,-0.0056915283203125
1772455355148934700,4.7799345703125,-1.085601806640625,-0.1224822998046875,-0.0309295654296875
1772455355158952700,4.78995263671875,-1.1136932373046875,-0.102447509765625,-0.048736572265625
1772455355168970500,4.799970458984375,-1.1373748779296875,-0.075714111328125,-0.0509185791015625
1772455355178987800,4.80998779296875,-1.1623382568359375,-0.05828857421875,-0.0328216552734375
1772455355189005600,4.820005615234375,-1.1887054443359375,-0.04400634765625,-0.008514404296875
1772455355199023600,4.830023681640625,-1.20843505859375,-0.02557373046875,0.014129638671875
1772455355209041700,4.840041748046875,-1.2206268310546875,-0.0021209716796875,0.031158447265625
1772455355219059700,4.850059814453125,-1.2230224609375,0.024261474609375,0.0424957275390625
1772455355229078500,4.86007861328125,-1.2064971923828125,0.0533599853515625,0.05712890625
1772455355239096300,4.870096435546875,-1.1765899658203125,0.072784423828125,0.0684967041015625
1772455355249114600,4.880114501953125,-1.13232421875,0.0746612548828125,0.0703125
1772455355259132400,4.89013232421875,-1.08056640625,0.0681304931640625,0.068634033203125
1772455355269149200,4.900149169921875,-1.0264892578125,0.0504913330078125,0.0691986083984375
1772455355279167500,4.91016748046875,-0.96728515625,0.0366058349609375,0.0691070556640625
1772455355289185500,4.920185546875,-0.91094970703125,0.0244140625,0.0666046142578125
1772455355299203300,4.930203369140625,-0.8626251220703125,0.007781982421875,0.0579986572265625
1772455355309221600,4.9402216796875,-0.8171844482421875,-0.001129150390625,0.0560302734375
1772455355319239400,4.950239501953125,-0.7691802978515625,-0.009124755859375,0.0667266845703125
1772455355329257500,4.960257568359375,-0.7344818115234375,-0.019561767578125,0.08544921875
1772455355339275300,4.970275146484375,-0.710357666015625,-0.0252532958984375,0.0956268310546875
1772455355349292500,4.98029248046875,-0.7063751220703125,-0.028839111328125,0.1078338623046875
1772455355359310300,4.990310302734375,-0.7165374755859375,-0.027587890625,0.1087646484375
1772455355369328400,5.000328369140625,-0.7405853271484375,-0.0339813232421875,0.1097869873046875
1772455355379346400,5.010346435546875,-0.7804107666015625,-0.0410919189453125,0.0994110107421875
1772455355389364500,5.020364501953125,-0.831634521484375,-0.05242919921875,0.0713958740234375
1772455355399382300,5.03038232421875,-0.88238525390625,-0.0545654296875,0.0349578857421875
1772455355409400600,5.040400634765625,-0.930389404296875,-0.0575714111328125,0.00579833984375
1772455355419418400,5.05041845703125,-0.9794769287109375,-0.060546875,-0.003936767578125
1772455355429436400,5.0604365234375,-1.0317840576171875,-0.0637664794921875,-0.0071868896484375
1772455355439453400,5.070453369140625,-1.0772857666015625,-0.0598297119140625,0.00225830078125
1772455355449471500,5.080471435546875,-1.115447998046875,-0.050048828125,0.015045166015625
1772455355459489300,5.0904892578125,-1.144989013671875,-0.0371856689453125,0.0391998291015625
1772455355469507300,5.10050732421875,-1.1632232666015625,-0.019012451171875,0.06591796875
1772455355479525400,5.110525390625,-1.1648101806640625,0.0020751953125,0.0920562744140625
1772455355489543400,5.12054345703125,-1.152008056640625,0.0149993896484375,0.1220703125
1772455355499561200,5.130561279296875,-1.123931884765625,0.0245208740234375,0.1425628662109375
1772455355509579500,5.14057958984375,-1.0825347900390625,0.0191802978515625,0.1543426513671875
1772455355519596300,5.15059619140625,-1.0392608642578125,-0.00018310546875,0.15716552734375
1772455355529614300,5.1606142578125,-1.0024566650390625,-0.0256500244140625,0.1479644775390625
1772455355539632400,5.17063232421875,-0.965972900390625,-0.046234130859375,0.1286468505859375
1772455355549650400,5.180650390625,-0.9327850341796875,-0.0610198974609375,0.107940673828125
1772455355559668200,5.190668212890625,-0.9078369140625,-0.074554443359375,0.0955047607421875
1772455355569686500,5.2006865234375,-0.886688232421875,-0.0843353271484375,0.091522216796875
1772455355579704600,5.21070458984375,-0.867523193359375,-0.0923309326171875,0.0908050537109375
1772455355589722400,5.220722412109375,-0.854248046875,-0.0984954833984375,0.08740234375
1772455355599740400,5.230740478515625,-0.847015380859375,-0.103759765625,0.087554931640625
1772455355609757400,5.24075732421875,-0.840728759765625,-0.1044921875,0.0908203125
1772455355619775500,5.250775390625,-0.842132568359375,-0.1078643798828125,0.0876617431640625
1772455355629793300,5.260793212890625,-0.8546142578125,-0.110382080078125,0.0843353271484375
1772455355639811600,5.2708115234375,-0.873321533203125,-0.117889404296875,0.0816192626953125
1772455355649829400,5.280829345703125,-0.9010162353515625,-0.123138427734375,0.0797576904296875
1772455355659847400,5.290847412109375,-0.933502197265625,-0.126678466796875,0.0717315673828125
1772455355669865500,5.300865478515625,-0.970062255859375,-0.132171630859375,0.0611724853515625
1772455355679883500,5.310883544921875,-0.99969482421875,-0.131927490234375,0.053680419921875
1772455355689901300,5.3209013671875,-1.01715087890625,-0.1305694580078125,0.052276611328125
1772455355699918600,5.330918701171875,-1.0225982666015625,-0.1302642822265625,0.055694580078125
1772455355709936400,5.340936279296875,-1.016754150390625,-0.1316680908203125,0.0670318603515625
1772455355719954400,5.350954345703125,-1.0029144287109375,-0.1321258544921875,0.07958984375
1772455355729972500,5.360972412109375,-0.990875244140625,-0.1324615478515625,0.093963623046875
1772455355739990500,5.370990478515625,-0.991607666015625,-0.1395111083984375,0.1009063720703125
1772455355750008300,5.38100830078125,-1.0034027099609375,-0.143035888671875,0.1018218994140625
1772455355760026400,5.3910263671875,-1.0216064453125,-0.139404296875,0.09014892578125
1772455355770044400,5.40104443359375,-1.0342254638671875,-0.1313934326171875,0.070770263671875
1772455355780062500,5.4110625,-1.0388031005859375,-0.119232177734375,0.0566558837890625
1772455355790079200,5.421079345703125,-1.045257568359375,-0.108917236328125,0.053802490234375
1772455355800097500,5.43109765625,-1.055572509765625,-0.1051177978515625,0.0570068359375
1772455355810115300,5.441115234375,-1.072845458984375,-0.1056976318359375,0.062774658203125
1772455355820133400,5.45113330078125,-1.08502197265625,-0.1054840087890625,0.0634918212890625
1772455355830151400,5.4611513671875,-1.087921142578125,-0.10296630859375,0.0599822998046875
1772455355840169500,5.47116943359375,-1.0821533203125,-0.0989990234375,0.0553741455078125
1772455355850187300,5.481187255859375,-1.063751220703125,-0.096893310546875,0.04925537109375
1772455355860205300,5.491205322265625,-1.0346221923828125,-0.0996856689453125,0.0467529296875
1772455355870222300,5.501222412109375,-1.009765625,-0.1069488525390625,0.0439910888671875
1772455355880240400,5.511240478515625,-0.9965972900390625,-0.1122894287109375,0.036407470703125
1772455355890258400,5.521258544921875,-1.00177001953125,-0.1170501708984375,0.0256805419921875
1772455355900276500,5.5312763671875,-1.01800537109375,-0.116851806640625,0.0113525390625
1772455355910294500,5.54129443359375,-1.04058837890625,-0.108001708984375,-0.0015106201171875
1772455355920312300,5.551312255859375,-1.0641326904296875,-0.09185791015625,-0.0071563720703125
1772455355930330600,5.56133056640625,-1.0836181640625,-0.073028564453125,-0.0054931640625
1772455355940348400,5.571348388671875,-1.1076202392578125,-0.0608367919921875,0.009918212890625
1772455355950366500,5.581366455078125,-1.13311767578125,-0.057342529296875,0.0223541259765625
1772455355960383500,5.591383544921875,-1.1589813232421875,-0.0531768798828125,0.03240966796875
1772455355970401500,5.601401611328125,-1.1789093017578125,-0.0441131591796875,0.036224365234375
1772455355980419300,5.61141943359375,-1.1840362548828125,-0.0299072265625,0.039642333984375
1772455355990437600,5.621437744140625,-1.1718902587890625,-0.0142364501953125,0.041839599609375
1772455356000455400,5.631455322265625,-1.1360931396484375,-0.0028533935546875,0.043182373046875
1772455356010473500,5.641473388671875,-1.088592529296875,0.0040740966796875,0.0459747314453125
1772455356020491300,5.6514912109375,-1.0399017333984375,0.0032806396484375,0.0506744384765625
1772455356030509600,5.661509521484375,-0.99163818359375,0.0001373291015625,0.0491180419921875
1772455356040527400,5.67152734375,-0.9483642578125,-0.0085296630859375,0.0458984375
1772455356050544400,5.68154443359375,-0.909912109375,-0.0156097412109375,0.042388916015625
1772455356060562400,5.6915625,-0.8815155029296875,-0.0229949951171875,0.0399932861328125
1772455356070580500,5.70158056640625,-0.8657684326171875,-0.0281982421875,0.03179931640625
1772455356080598300,5.711598388671875,-0.8671112060546875,-0.0339202880859375,0.025970458984375
1772455356090616600,5.721616455078125,-0.881561279296875,-0.0396575927734375,0.008087158203125
1772455356100634400,5.73163427734375,-0.9087982177734375,-0.0443878173828125,-0.0160369873046875
1772455356110652400,5.74165234375,-0.9366912841796875,-0.0420684814453125,-0.0433197021484375
1772455356120670200,5.751670166015625,-0.9569854736328125,-0.0320587158203125,-0.068206787109375
1772455356130687500,5.7616875,-0.965789794921875,-0.017059326171875,-0.078521728515625
1772455356140705300,5.771705322265625,-0.964569091796875,-0.0020751953125,-0.07440185546875
1772455356150723600,5.7817236328125,-0.9649658203125,0.012664794921875,-0.0540618896484375
1772455356160741400,5.791741455078125,-0.9642333984375,0.020782470703125,-0.0291748046875
1772455356170759400,5.801759521484375,-0.973846435546875,0.0267333984375,-0.0102691650390625
1772455356180777200,5.811777099609375,-0.9913177490234375,0.0279083251953125,-0.0017242431640625
1772455356190795500,5.82179541015625,-1.01739501953125,0.02471923828125,-0.00714111328125
1772455356200813600,5.8318134765625,-1.0448150634765625,0.0177001953125,-0.0256195068359375
1772455356210831400,5.841831298828125,-1.064300537109375,0.0073089599609375,-0.048583984375
1772455356220848400,5.851848388671875,-1.0657806396484375,-0.003021240234375,-0.0648956298828125
1772455356230866000,5.861865966796875,-1.054901123046875,-0.01568603515625,-0.07177734375
1772455356240883700,5.8718837890625,-1.030487060546875,-0.025299072265625,-0.0703277587890625
1772455356250902000,5.881902099609375,-0.9960174560546875,-0.032623291015625,-0.0605926513671875
1772455356260919800,5.891919921875,-0.95794677734375,-0.0382080078125,-0.0477142333984375
1772455356270937900,5.901937744140625,-0.9262542724609375,-0.0497894287109375,-0.0348968505859375
1772455356280956000,5.911955810546875,-0.899566650390625,-0.0638885498046875,-0.0290985107421875
1772455356290974000,5.921973876953125,-0.875518798828125,-0.07818603515625,-0.032684326171875
1772455356300992000,5.931991943359375,-0.8565826416015625,-0.0921478271484375,-0.040924072265625
1772455356311009000,5.942009033203125,-0.8463897705078125,-0.10736083984375,-0.0500640869140625
1772455356321026800,5.95202685546875,-0.8436431884765625,-0.1266021728515625,-0.05364990234375
1772455356331043800,5.9620439453125,-0.84661865234375,-0.1392059326171875,-0.0570831298828125
1772455356341062000,5.972061767578125,-0.856414794921875,-0.1461181640625,-0.0577392578125
1772455356351080000,5.982079833984375,-0.86767578125,-0.1424102783203125,-0.054595947265625
1772455356361097700,5.99209765625,-0.8830108642578125,-0.133880615234375,-0.050262451171875
1772455356371116000,6.002115966796875,-0.9022216796875,-0.129180908203125,-0.039886474609375
1772455356381134000,6.012134033203125,-0.9193572998046875,-0.1203765869140625,-0.0278778076171875
1772455356391151900,6.02215185546875,-0.931793212890625,-0.11260986328125,-0.0137176513671875
1772455356401170000,6.032169921875,-0.9412994384765625,-0.1052703857421875,0.0022125244140625
1772455356411188000,6.04218798828125,-0.9506378173828125,-0.099456787109375,0.0128326416015625
1772455356421204700,6.052204833984375,-0.9620361328125,-0.0970916748046875,0.0229034423828125
1772455356431223000,6.06222314453125,-0.9733123779296875,-0.1024169921875,0.03131103515625
1772455356441241000,6.072240966796875,-0.9813079833984375,-0.10638427734375,0.031463623046875
1772455356451259000,6.0822587890625,-0.9832000732421875,-0.1145477294921875,0.02142333984375
1772455356461277000,6.09227685546875,-0.9774932861328125,-0.1216583251953125,0.01226806640625
1772455356471295000,6.102294921875,-0.9709625244140625,-0.130645751953125,0.0124664306640625
1772455356481313000,6.11231298828125,-0.9643707275390625,-0.136627197265625,0.0178680419921875
1772455356491330800,6.122330810546875,-0.958221435546875,-0.13836669921875,0.0270538330078125
1772455356501348900,6.132348876953125,-0.9567718505859375,-0.138214111328125,0.0322113037109375
1772455356511366000,6.142365966796875,-0.9604034423828125,-0.1329193115234375,0.0314788818359375
1772455356521384000,6.152384033203125,-0.97601318359375,-0.130218505859375,0.0290069580078125
1772455356531402000,6.162402099609375,-0.998016357421875,-0.1324310302734375,0.024566650390625
1772455356541420000,6.172419921875,-1.029754638671875,-0.1375579833984375,0.01568603515625
1772455356551437800,6.182437744140625,-1.0573883056640625,-0.1438751220703125,-0.000030517578125
1772455356561455900,6.192455810546875,-1.0805206298828125,-0.14300537109375,-0.00811767578125
1772455356571474000,6.202473876953125,-1.0931549072265625,-0.135101318359375,-0.0098419189453125
1772455356581492000,6.212491943359375,-1.0969390869140625,-0.1303863525390625,-0.0062255859375
1772455356591509800,6.222509765625,-1.093902587890625,-0.12603759765625,0.003265380859375
1772455356601527000,6.232527099609375,-1.08392333984375,-0.1202850341796875,0.0136871337890625
1772455356611544800,6.242544921875,-1.072357177734375,-0.119293212890625,0.0220184326171875
1772455356621563000,6.25256298828125,-1.057830810546875,-0.1222991943359375,0.0274505615234375
1772455356631581000,6.262580810546875,-1.038909912109375,-0.1233978271484375,0.0243072509765625
1772455356641599000,6.272598876953125,-1.0127716064453125,-0.121429443359375,0.0161590576171875
1772455356651616800,6.28261669921875,-0.9972686767578125,-0.1237030029296875,0.0095977783203125
1772455356661634800,6.292634765625,-1.004058837890625,-0.134796142578125,0.007965087890625
1772455356671653000,6.302653076171875,-1.0382080078125,-0.158660888671875,0.0015106201171875
1772455356681671000,6.3126708984375,-1.0864410400390625,-0.17633056640625,-0.013275146484375
1772455356691689000,6.32268896484375,-1.1331634521484375,-0.173858642578125,-0.0363311767578125
1772455356701707000,6.33270703125,-1.1713104248046875,-0.153167724609375,-0.0505828857421875
1772455356711723800,6.342723876953125,-1.209716796875,-0.1300048828125,-0.054656982421875
1772455356721741800,6.352741943359375,-1.24591064453125,-0.1078643798828125,-0.0432281494140625
1772455356731760000,6.362760009765625,-1.2728271484375,-0.0789794921875,-0.025909423828125
1772455356741778000,6.37277783203125,-1.2869110107421875,-0.0417327880859375,0.000274658203125
1772455356751796000,6.3827958984375,-1.2856903076171875,0.00030517578125,0.0287017822265625
1772455356761813800,6.392813720703125,-1.2667083740234375,0.0449676513671875,0.06231689453125
1772455356771832000,6.40283203125,-1.2265167236328125,0.0799102783203125,0.0958709716796875
1772455356781849900,6.412849853515625,-1.17120361328125,0.10382080078125,0.1195526123046875
1772455356791868000,6.422867919921875,-1.1024322509765625,0.114501953125,0.131866455078125
1772455356801885000,6.432885009765625,-1.0297393798828125,0.110748291015625,0.134033203125
1772455356811903000,6.442903076171875,-0.962860107421875,0.0942535400390625,0.1255035400390625
1772455356821920800,6.452920654296875,-0.8905792236328125,0.076751708984375,0.102630615234375
1772455356831939000,6.46293896484375,-0.823272705078125,0.0520782470703125,0.0791778564453125
1772455356841956900,6.472956787109375,-0.7640838623046875,0.019775390625,0.05657958984375
1772455356851975000,6.482974853515625,-0.716827392578125,-0.01556396484375,0.0460205078125
1772455356861993000,6.492992919921875,-0.6792755126953125,-0.048065185546875,0.0477294921875
1772455356872011000,6.503010986328125,-0.6531829833984375,-0.0657501220703125,0.049591064453125
1772455356882027800,6.51302783203125,-0.6414642333984375,-0.076385498046875,0.0627593994140625
1772455356892046000,6.523046142578125,-0.6552276611328125,-0.0868988037109375,0.0751190185546875
1772455356902063900,6.53306396484375,-0.69891357421875,-0.0965118408203125,0.077056884765625
1772455356912082000,6.54308203125,-0.76519775390625,-0.1021575927734375,0.068206787109375
1772455356922099700,6.553099609375,-0.8348388671875,-0.0991363525390625,0.04095458984375
1772455356932118000,6.563117919921875,-0.916473388671875,-0.0896148681640625,0.0063018798828125
1772455356942135800,6.5731357421875,-0.99591064453125,-0.074554443359375,-0.0182952880859375
1772455356952153900,6.58315380859375,-1.0648651123046875,-0.055511474609375,-0.0144805908203125
1772455356962172000,6.593171875,-1.1174163818359375,-0.0336456298828125,0.009185791015625
1772455356972190000,6.60318994140625,-1.1537933349609375,-0.011566162109375,0.0373687744140625
1772455356982206700,6.613206787109375,-1.167022705078125,0.014984130859375,0.068267822265625
1772455356992225000,6.62322509765625,-1.162445068359375,0.0395355224609375,0.0968780517578125
1772455357002242800,6.633242919921875,-1.14569091796875,0.0563507080078125,0.1267242431640625
1772455357012260900,6.6432607421875,-1.1221466064453125,0.0615386962890625,0.1485748291015625
1772455357022279000,6.65327880859375,-1.094696044921875,0.0588226318359375,0.157806396484375
1772455357032297000,6.663296875,-1.056671142578125,0.050384521484375,0.1537017822265625
1772455357042315000,6.67331494140625,-1.0122528076171875,0.0394439697265625,0.1385498046875
1772455357052332800,6.683332763671875,-0.962158203125,0.02105712890625,0.1225128173828125
1772455357062350000,6.69335009765625,-0.910888671875,-0.00445556640625,0.1078338623046875
1772455357072367900,6.703367919921875,-0.86614990234375,-0.0264892578125,0.0925445556640625
1772455357082386000,6.713385986328125,-0.8308258056640625,-0.0442352294921875,0.0780487060546875
1772455357092404000,6.723404052734375,-0.803924560546875,-0.0574188232421875,0.0684967041015625
1772455357102422000,6.733422119140625,-0.784149169921875,-0.074737548828125,0.0640869140625
1772455357112439800,6.743439697265625,-0.7754058837890625,-0.0906982421875,0.0613555908203125
1772455357122457900,6.753457763671875,-0.780792236328125,-0.10540771484375,0.0568389892578125
1772455357132476000,6.763475830078125,-0.79827880859375,-0.117156982421875,0.0485076904296875
1772455357142494000,6.773493896484375,-0.8298187255859375,-0.1250457763671875,0.03533935546875
1772455357152511700,6.78351171875,-0.870849609375,-0.1298675537109375,0.0208892822265625
1772455357162529000,6.793529052734375,-0.9093475341796875,-0.1327667236328125,0.0062255859375
1772455357172546800,6.803546875,-0.942657470703125,-0.13671875,-0.0050811767578125
1772455357182564900,6.81356494140625,-0.9665069580078125,-0.139190673828125,-0.0037841796875
1772455357192583000,6.8235830078125,-0.988311767578125,-0.143463134765625,0.0069122314453125
1772455357202601000,6.83360107421875,-1.010345458984375,-0.1445159912109375,0.0167236328125
1772455357212618800,6.84361865234375,-1.031005859375,-0.1433868408203125,0.02264404296875
1772455357222637000,6.853636962890625,-1.0513153076171875,-0.1424102783203125,0.0284576416015625
1772455357232654300,6.863654296875,-1.0709228515625,-0.1383819580078125,0.0251312255859375
1772455357242671600,6.873671630859375,-1.0783233642578125,-0.1375885009765625,0.02325439453125
1772455357252689400,6.883689453125,-1.08013916015625,-0.1415557861328125,0.0269775390625
1772455357262707500,6.89370751953125,-1.07464599609375,-0.149810791015625,0.0326690673828125
1772455357272725200,6.903725341796875,-1.067962646484375,-0.15618896484375,0.0430908203125
1772455357282743600,6.91374365234375,-1.0613555908203125,-0.157318115234375,0.048095703125
1772455357292761300,6.92376123046875,-1.0582733154296875,-0.1539306640625,0.0454254150390625
1772455357302779400,6.933779296875,-1.05511474609375,-0.1483154296875,0.0428466796875
1772455357312797200,6.943797119140625,-1.05926513671875,-0.1454925537109375,0.0434417724609375
1772455357322815500,6.9538154296875,-1.0601348876953125,-0.1429901123046875,0.04022216796875
1772455357332832300,6.963832275390625,-1.0599517822265625,-0.1385955810546875,0.0341644287109375
1772455357342850600,6.9738505859375,-1.05657958984375,-0.1336212158203125,0.0248565673828125
1772455357352868400,6.983868408203125,-1.0413970947265625,-0.1275787353515625,0.016571044921875
1772455357362886400,6.993886474609375,-1.0199737548828125,-0.1183624267578125,0.0165557861328125
1772455357372904400,7.003904541015625,-1.000274658203125,-0.1131134033203125,0.0183868408203125
1772455357382922500,7.013922607421875,-0.9973907470703125,-0.1142730712890625,0.0202789306640625
1772455357392940500,7.0239404296875,-1.0118255615234375,-0.111785888671875,0.021881103515625
1772455357402958300,7.033958251953125,-1.0382843017578125,-0.1035919189453125,0.013092041015625
1772455357412976400,7.043976318359375,-1.06683349609375,-0.0843505859375,-0.0018768310546875
1772455357422993400,7.053993408203125,-1.0977935791015625,-0.0623016357421875,-0.0181884765625
1772455357433011500,7.064011474609375,-1.1269989013671875,-0.0470428466796875,-0.02392578125
1772455357443029500,7.074029541015625,-1.158050537109375,-0.03851318359375,-0.0198822021484375
1772455357453047600,7.084047607421875,-1.1909027099609375,-0.03778076171875,-0.008392333984375
1772455357463065300,7.0940654296875,-1.2144927978515625,-0.030731201171875,-0.0013275146484375
1772455357473083400,7.10408349609375,-1.222869873046875,-0.0167388916015625,0.0084991455078125
1772455357483101400,7.114101318359375,-1.2107391357421875,-0.0011138916015625,0.017974853515625
1772455357493119500,7.124119384765625,-1.1807098388671875,0.0105743408203125,0.031768798828125
1772455357503137300,7.13413720703125,-1.134124755859375,0.0208740234375,0.04681396484375
1772455357513154600,7.144154541015625,-1.0824737548828125,0.02447509765625,0.055511474609375
1772455357523172400,7.15417236328125,-1.039337158203125,0.02215576171875,0.0587310791015625
1772455357533190400,7.1641904296875,-0.995452880859375,0.0197601318359375,0.046844482421875
1772455357543208400,7.17420849609375,-0.9611968994140625,0.0130767822265625,0.02960205078125
1772455357553226500,7.1842265625,-0.929840087890625,0.00408935546875,0.0110626220703125
1772455357563244300,7.194244384765625,-0.9040679931640625,-0.010650634765625,-0.0055389404296875
1772455357573262300,7.204262451171875,-0.8865966796875,-0.02520751953125,-0.025909423828125
1772455357583280400,7.2142802734375,-0.8774566650390625,-0.0379638671875,-0.050933837890625
1772455357593298400,7.22429833984375,-0.8729095458984375,-0.0460662841796875,-0.073577880859375
1772455357603316200,7.234316162109375,-0.87542724609375,-0.0516357421875,-0.087860107421875
1772455357613333500,7.24433349609375,-0.8816070556640625,-0.0515899658203125,-0.08978271484375
1772455357623351300,7.254351318359375,-0.888702392578125,-0.0453948974609375,-0.08111572265625
1772455357633369300,7.264369384765625,-0.9080963134765625,-0.03228759765625,-0.0643310546875
1772455357643387400,7.274387451171875,-0.933197021484375,-0.0185699462890625,-0.0465850830078125
1772455357653405400,7.284405517578125,-0.962127685546875,-0.0048980712890625,-0.031951904296875
1772455357663423500,7.294423583984375,-0.998046875,0.0024871826171875,-0.0172271728515625
1772455357673441500,7.304441650390625,-1.0352325439453125,0.0069732666015625,-0.00653076171875
1772455357683459600,7.31445947265625,-1.06915283203125,0.01190185546875,-0.001617431640625
1772455357693476400,7.324476318359375,-1.0971221923828125,0.012115478515625,-0.0091552734375
1772455357703494400,7.334494384765625,-1.1164703369140625,0.009490966796875,-0.0207366943359375
1772455357713512400,7.344512451171875,-1.11767578125,0.00830078125,-0.0291748046875
1772455357723530500,7.354530517578125,-1.1028900146484375,0.0047607421875,-0.0322723388671875
1772455357733548300,7.36454833984375,-1.06915283203125,-0.0050201416015625,-0.0315704345703125
1772455357743566600,7.374566650390625,-1.0159912109375,-0.019439697265625,-0.0297088623046875
1772455357753584400,7.38458447265625,-0.9642181396484375,-0.034393310546875,-0.027099609375
1772455357763602400,7.3946025390625,-0.9096527099609375,-0.052337646484375,-0.0236968994140625
1772455357773620500,7.404620361328125,-0.859588623046875,-0.068572998046875,-0.024871826171875
1772455357783637500,7.414637451171875,-0.8138885498046875,-0.085968017578125,-0.0217437744140625
1772455357793655300,7.4246552734375,-0.7795257568359375,-0.10595703125,-0.0246429443359375
1772455357803673600,7.434673583984375,-0.7576446533203125,-0.1274261474609375,-0.02813720703125
1772455357813691400,7.44469140625,-0.74700927734375,-0.147613525390625,-0.03802490234375
1772455357823709400,7.45470947265625,-0.7481689453125,-0.162078857421875,-0.0487213134765625
1772455357833727200,7.464727294921875,-0.7599639892578125,-0.1713714599609375,-0.05950927734375
1772455357843745500,7.47474560546875,-0.7849884033203125,-0.176971435546875,-0.0655975341796875
1772455357853763300,7.484763427734375,-0.8215179443359375,-0.178131103515625,-0.0670166015625
1772455357863781400,7.494781494140625,-0.8622894287109375,-0.1700286865234375,-0.0662078857421875
1772455357873799400,7.50479931640625,-0.89208984375,-0.1554107666015625,-0.0567779541015625
1772455357883816400,7.51481640625,-0.9184417724609375,-0.138336181640625,-0.0373077392578125
1772455357893834200,7.524834228515625,-0.938232421875,-0.128387451171875,-0.0107269287109375
1772455357903852500,7.5348525390625,-0.958282470703125,-0.1260986328125,0.0157623291015625
1772455357913870300,7.544870361328125,-0.976409912109375,-0.1237640380859375,0.030548095703125
1772455357923888400,7.554888427734375,-0.9918975830078125,-0.1239166259765625,0.0345306396484375
1772455357933906400,7.564906494140625,-1.0012664794921875,-0.1230010986328125,0.03515625
1772455357943924500,7.574924560546875,-1.008941650390625,-0.1209259033203125,0.03912353515625
1772455357953942500,7.584942626953125,-1.01116943359375,-0.1237335205078125,0.0432891845703125
1772455357963959600,7.59495947265625,-1.013214111328125,-0.1296539306640625,0.0455322265625
1772455357973977300,7.604977294921875,-1.0113983154296875,-0.1387176513671875,0.04669189453125
1772455357983995400,7.614995361328125,-1.0110015869140625,-0.1467132568359375,0.0474395751953125
1772455357994013200,7.62501318359375,-1.0109405517578125,-0.1517486572265625,0.04931640625
1772455358004031500,7.635031494140625,-1.015594482421875,-0.1603240966796875,0.0470428466796875
1772455358014049500,7.645049560546875,-1.021209716796875,-0.16717529296875,0.0445556640625
1772455358024067300,7.6550673828125,-1.0265655517578125,-0.17041015625,0.0389556884765625
1772455358034085600,7.665085693359375,-1.0293731689453125,-0.1722259521484375,0.033233642578125
1772455358044103400,7.675103515625,-1.0277252197265625,-0.172119140625,0.027130126953125
1772455358054120200,7.6851201171875,-1.0245361328125,-0.1715240478515625,0.0254669189453125
1772455358064138500,7.695138427734375,-1.0221710205078125,-0.17218017578125,0.0191497802734375
1772455358074156500,7.705156494140625,-1.0234527587890625,-0.171417236328125,0.0117950439453125
1772455358084174300,7.71517431640625,-1.02276611328125,-0.1665802001953125,0.003631591796875
1772455358094192400,7.7251923828125,-1.0196990966796875,-0.1590423583984375,0.000030517578125
1772455358104210400,7.73521044921875,-1.0092315673828125,-0.151153564453125,0.0026397705078125
1772455358114228500,7.745228515625,-1.00592041015625,-0.1476287841796875,0.014892578125
1772455358124246300,7.755246337890625,-1.0192108154296875,-0.1479949951171875,0.01983642578125
1772455358134264600,7.7652646484375,-1.05340576171875,-0.1643829345703125,0.008331298828125
1772455358144282400,7.775282470703125,-1.0973968505859375,-0.1840667724609375,-0.018280029296875
1772455358154299400,7.78529931640625,-1.1381072998046875,-0.1868743896484375,-0.04901123046875
1772455358164317400,7.7953173828125,-1.16192626953125,-0.162384033203125,-0.0767059326171875
1772455358174335500,7.80533544921875,-1.1844940185546875,-0.126983642578125,-0.0782928466796875
1772455358184353300,7.815353271484375,-1.2001495361328125,-0.0841827392578125,-0.0556182861328125
1772455358194371600,7.82537158203125,-1.20941162109375,-0.038665771484375,-0.0130157470703125
1772455358204389400,7.835389404296875,-1.2161407470703125,0.0015106201171875,0.036834716796875
1772455358214407400,7.845407470703125,-1.219818115234375,0.035003662109375,0.080841064453125
1772455358224425200,7.85542529296875,-1.2250518798828125,0.0627593994140625,0.1209716796875
1772455358234443500,7.865443603515625,-1.2234039306640625,0.0857086181640625,0.1516265869140625
1772455358244461600,7.875461669921875,-1.20458984375,0.108917236328125,0.1770782470703125
1772455358254479600,7.885479736328125,-1.1674652099609375,0.1247711181640625,0.188507080078125
1772455358264497400,7.895497314453125,-1.119384765625,0.128082275390625,0.18310546875
1772455358274515700,7.905515625,-1.0543975830078125,0.118011474609375,0.1716156005859375
1772455358284533500,7.915533447265625,-0.9809112548828125,0.0954132080078125,0.159698486328125
1772455358294551600,7.925551513671875,-0.9031982421875,0.0725250244140625,0.1464080810546875
1772455358304569600,7.935569580078125,-0.8282470703125,0.0442352294921875,0.1260986328125
1772455358314587600,7.945587646484375,-0.7633514404296875,0.0131072998046875,0.11285400390625
1772455358324605400,7.95560546875,-0.70550537109375,-0.0149993896484375,0.1074981689453125
1772455358334622700,7.965622802734375,-0.6640472412109375,-0.0387725830078125,0.104949951171875
1772455358344640500,7.975640625,-0.643829345703125,-0.0560302734375,0.10260009765625
1772455358354658600,7.985658447265625,-0.6492462158203125,-0.06964111328125,0.09271240234375
1772455358364676400,7.99567626953125,-0.6784515380859375,-0.08062744140625,0.0827178955078125
1772455358374694700,8.005694580078124,-0.72796630859375,-0.0938262939453125,0.066558837890625
1772455358384712400,8.01571240234375,-0.7979736328125,-0.102508544921875,0.046234130859375
1772455358394730500,8.02573046875,-0.87213134765625,-0.103271484375,0.0198822021484375
1772455358404748500,8.03574853515625,-0.9442291259765625,-0.09100341796875,0.0000152587890625
1772455358414766600,8.0457666015625,-1.007354736328125,-0.073516845703125,-0.00225830078125
1772455358424783400,8.055783447265625,-1.062103271484375,-0.057098388671875,0.015625
1772455358434801700,8.0658017578125,-1.111968994140625,-0.03887939453125,0.0477142333984375
1772455358444819500,8.0758193359375,-1.14996337890625,-0.016998291015625,0.0814056396484375
1772455358454837500,8.08583740234375,-1.1800079345703125,0.0100250244140625,0.1095428466796875
1772455358464855600,8.09585546875,-1.193084716796875,0.034332275390625,0.1337127685546875
1772455358474873600,8.10587353515625,-1.1947479248046875,0.055389404296875,0.158966064453125
1772455358484891600,8.1158916015625,-1.1846923828125,0.0695648193359375,0.1769561767578125
1772455358494909400,8.125909423828125,-1.148193359375,0.07305908203125,0.185943603515625
1772455358504927700,8.135927734375,-1.089111328125,0.06329345703125,0.1816864013671875
1772455358514944500,8.145944580078124,-1.0237579345703125,0.0383758544921875,0.1744842529296875
1772455358524962600,8.155962646484374,-0.960052490234375,0.0110626220703125,0.1607513427734375
1772455358534980600,8.165980712890626,-0.9038238525390625,-0.0162811279296875,0.1453094482421875
1772455358544998700,8.17599853515625,-0.8530426025390625,-0.042327880859375,0.1322784423828125
1772455358555016400,8.186016357421876,-0.81207275390625,-0.0673065185546875,0.122467041015625
1772455358565034800,8.19603466796875,-0.77972412109375,-0.0938873291015625,0.112396240234375
1772455358575052500,8.206052490234375,-0.7566070556640625,-0.11724853515625,0.10650634765625
1772455358585070600,8.216070556640625,-0.7468414306640625,-0.1336517333984375,0.1010894775390625
1772455358595088400,8.22608837890625,-0.7470703125,-0.148712158203125,0.0880279541015625
1772455358605105700,8.236105712890625,-0.756744384765625,-0.1576385498046875,0.0744171142578125
1772455358615123500,8.24612353515625,-0.7763671875,-0.1618804931640625,0.06439208984375
1772455358625141500,8.2561416015625,-0.80792236328125,-0.165069580078125,0.0575408935546875
1772455358635159600,8.26615966796875,-0.851776123046875,-0.1680755615234375,0.05712890625
1772455358645177600,8.276177490234375,-0.8971405029296875,-0.1661529541015625,0.0555877685546875
1772455358655195400,8.2861953125,-0.94427490234375,-0.163238525390625,0.0564422607421875
1772455358665213700,8.296213623046874,-0.989654541015625,-0.156890869140625,0.05877685546875
1772455358675231500,8.3062314453125,-1.029510498046875,-0.1506500244140625,0.0589447021484375
1772455358685249500,8.31624951171875,-1.0608062744140625,-0.1434783935546875,0.06292724609375
1772455358695266600,8.3262666015625,-1.0816802978515625,-0.14019775390625,0.0733489990234375
1772455358705284600,8.33628466796875,-1.0982208251953125,-0.1380157470703125,0.0848541259765625
1772455358715302400,8.346302490234375,-1.1101226806640625,-0.134796142578125,0.095306396484375
1772455358725320700,8.35632080078125,-1.1171417236328125,-0.1343231201171875,0.1015472412109375
1772455358735338500,8.36633837890625,-1.1227874755859375,-0.1375274658203125,0.104949951171875
1772455358745356500,8.3763564453125,-1.1254730224609375,-0.138519287109375,0.10321044921875
1772455358755374300,8.386374267578125,-1.1251373291015625,-0.14605712890625,0.0928802490234375
1772455358765392600,8.396392578125,-1.115692138671875,-0.152374267578125,0.078033447265625
1772455358775410700,8.40641064453125,-1.0991058349609375,-0.160186767578125,0.067474365234375
1772455358785427500,8.416427490234375,-1.0739288330078125,-0.1662750244140625,0.0606231689453125
1772455358795445500,8.426445556640624,-1.0485076904296875,-0.170166015625,0.0583038330078125
1772455358805463600,8.436463623046874,-1.0292816162109375,-0.172088623046875,0.060821533203125
1772455358815481600,8.446481689453124,-1.01397705078125,-0.170135498046875,0.0610809326171875
1772455358825499600,8.456499755859374,-1.0050048828125,-0.162139892578125,0.0605926513671875
1772455358835517700,8.466517578125,-1.002777099609375,-0.151092529296875,0.0619354248046875
1772455358845535500,8.476535400390626,-1.0057220458984375,-0.1443328857421875,0.058197021484375
1772455358855553500,8.486553466796876,-1.002532958984375,-0.138458251953125,0.049774169921875
1772455358865571600,8.496571533203126,-0.9870147705078125,-0.1335906982421875,0.0390777587890625
1772455358875588600,8.506588623046875,-0.9642181396484375,-0.1287078857421875,0.0382843017578125
1772455358885606400,8.5166064453125,-0.9522552490234375,-0.12847900390625,0.04833984375
1772455358895624700,8.526624755859375,-0.9682159423828125,-0.136505126953125,0.058563232421875
1772455358905642500,8.536642578125,-1.003204345703125,-0.1393585205078125,0.0580596923828125
1772455358915660500,8.54666064453125,-1.0380096435546875,-0.1219635009765625,0.0470428466796875
1772455358925678600,8.5566787109375,-1.068359375,-0.0948333740234375,0.0309600830078125
1772455358935696600,8.566696533203125,-1.0846710205078125,-0.0711212158203125,0.0247650146484375
1772455358945714400,8.57671435546875,-1.0923004150390625,-0.0548248291015625,0.0351715087890625
1772455358955732500,8.586732421875,-1.097137451171875,-0.0493927001953125,0.0536956787109375
1772455358965749500,8.59674951171875,-1.1023406982421875,-0.046905517578125,0.066558837890625
1772455358975767600,8.606767578125,-1.113128662109375,-0.0413970947265625,0.06915283203125
1772455358985785600,8.61678564453125,-1.1157989501953125,-0.0287628173828125,0.0666351318359375
1772455358995803600,8.6268037109375,-1.11309814453125,-0.0159149169921875,0.07171630859375
1772455359005821400,8.636821533203126,-1.1032867431640625,-0.000335693359375,0.0828399658203125
1772455359015839500,8.646839599609375,-1.0833282470703125,0.015350341796875,0.09454345703125
1772455359025857500,8.656857421875,-1.0590362548828125,0.016510009765625,0.100341796875
1772455359035875600,8.66687548828125,-1.0286407470703125,0.006622314453125,0.1004791259765625
1772455359045893400,8.676893310546875,-0.9944305419921875,-0.0044097900390625,0.0864715576171875
1772455359055910700,8.68691064453125,-0.959625244140625,-0.0183563232421875,0.066314697265625
1772455359065928400,8.696928466796875,-0.9268798828125,-0.0311737060546875,0.044219970703125
1772455359075946500,8.706946533203125,-0.9007415771484375,-0.0506134033203125,0.0172119140625
1772455359085964500,8.716964599609375,-0.8857574462890625,-0.0749053955078125,-0.0071868896484375
1772455359095982600,8.726982666015624,-0.880401611328125,-0.0967559814453125,-0.0280914306640625
1772455359106000600,8.737000732421874,-0.8860626220703125,-0.115234375,-0.04876708984375
1772455359116018400,8.747018310546874,-0.8994598388671875,-0.12322998046875,-0.0665435791015625
1772455359126036700,8.75703662109375,-0.909637451171875,-0.1199951171875,-0.0775909423828125
1772455359136054500,8.767054443359376,-0.918060302734375,-0.1046600341796875,-0.0796661376953125
1772455359146071600,8.777071533203125,-0.9264678955078125,-0.0856475830078125,-0.0695037841796875
1772455359156089600,8.787089599609375,-0.9343109130859375,-0.066070556640625,-0.0484619140625
1772455359166107600,8.797107666015625,-0.947784423828125,-0.0496673583984375,-0.023223876953125
1772455359176125400,8.80712548828125,-0.967864990234375,-0.03125,0.0012969970703125
1772455359186143700,8.817143798828125,-0.9890899658203125,-0.0150909423828125,0.0158233642578125
1772455359196161500,8.82716162109375,-1.0181427001953125,-0.004913330078125,0.022552490234375
1772455359206179600,8.8371796875,-1.0556640625,0.003662109375,0.024169921875
1772455359216197400,8.847197265625,-1.095123291015625,0.0023651123046875,0.023895263671875
1772455359226215700,8.857215576171875,-1.1363677978515625,-0.001251220703125,0.024993896484375
1772455359236232200,8.867232177734374,-1.1660614013671875,0.0012969970703125,0.0190887451171875
1772455359246250500,8.87725048828125,-1.17523193359375,0.00439453125,0.00445556640625
1772455359256268300,8.887268310546874,-1.165191650390625,0.0034637451171875,-0.0071868896484375
1772455359266286300,8.897286376953126,-1.1291351318359375,-0.0064239501953125,-0.016265869140625
1772455359276304100,8.90730419921875,-1.0696868896484375,-0.0221405029296875,-0.0164947509765625
1772455359286322400,8.917322509765626,-1.00335693359375,-0.0433502197265625,-0.014923095703125
1772455359296340200,8.92734033203125,-0.94110107421875,-0.0635223388671875,-0.0142364501953125
1772455359306358300,8.937358154296875,-0.8797454833984375,-0.0802764892578125,-0.023590087890625
1772455359316376300,8.947376220703125,-0.8248291015625,-0.096649169921875,-0.0234527587890625
1772455359326393300,8.957393310546875,-0.7815399169921875,-0.11865234375,-0.02264404296875
1772455359336411100,8.9674111328125,-0.7496795654296875,-0.138885498046875,-0.0244903564453125
1772455359346429400,8.977429443359375,-0.7259979248046875,-0.1559295654296875,-0.0312652587890625
1772455359356447200,8.987447265625,-0.7135467529296875,-0.167572021484375,-0.03790283203125
1772455359366465300,8.99746533203125,-0.712860107421875,-0.1767425537109375,-0.0415191650390625
1772455359376483300,9.0074833984375,-0.726959228515625,-0.1818695068359375,-0.0429840087890625
1772455359386501400,9.01750146484375,-0.7545928955078125,-0.1853485107421875,-0.042877197265625
1772455359396519200,9.027519287109374,-0.79827880859375,-0.180511474609375,-0.036285400390625
1772455359406537200,9.037537109375,-0.845550537109375,-0.163360595703125,-0.023681640625
1772455359416555500,9.047555419921874,-0.89208984375,-0.143463134765625,-0.0139617919921875
1772455359426572300,9.057572265625,-0.93731689453125,-0.1256561279296875,-0.0008544921875
1772455359436590000,9.067590087890625,-0.975372314453125,-0.113861083984375,0.0127410888671875
1772455359446608400,9.0776083984375,-1.013336181640625,-0.102752685546875,0.0219879150390625
1772455359456626200,9.087626220703125,-1.04400634765625,-0.0921783447265625,0.0312042236328125
1772455359466644200,9.097644287109375,-1.0684051513671875,-0.0882110595703125,0.041900634765625
1772455359476662300,9.107662353515625,-1.0892791748046875,-0.086639404296875,0.0483856201171875
1772455359486680300,9.117680419921875,-1.0919952392578125,-0.085784912109375,0.0579376220703125
1772455359496698400,9.127698486328125,-1.08636474609375,-0.0892333984375,0.0642242431640625
1772455359506716200,9.137716064453125,-1.07373046875,-0.095794677734375,0.06915283203125
1772455359516733400,9.1477333984375,-1.05255126953125,-0.105621337890625,0.067352294921875
1772455359526751200,9.157751220703124,-1.03717041015625,-0.11566162109375,0.0579986572265625
1772455359536769300,9.167769287109374,-1.023223876953125,-0.1308746337890625,0.0420684814453125
1772455359546787300,9.177787353515624,-1.014190673828125,-0.14404296875,0.021087646484375
1772455359556805400,9.187805419921874,-1.007659912109375,-0.1547698974609375,0.00201416015625
1772455359566823200,9.1978232421875,-0.9995269775390625,-0.161956787109375,-0.0070648193359375
1772455359576841500,9.207841552734376,-0.9926300048828125,-0.1668548583984375,-0.0091400146484375
1772455359586859300,9.217859375,-0.9907989501953125,-0.17083740234375,-0.0063323974609375
1772455359596877300,9.227877197265625,-0.98699951171875,-0.17181396484375,-0.0019073486328125
1772455359606894300,9.237894287109375,-0.9799041748046875,-0.163604736328125,0.001556396484375
1772455359616912400,9.247912353515625,-0.97283935546875,-0.152374267578125,0.0099945068359375
1772455359626930200,9.25793017578125,-0.9737396240234375,-0.143646240234375,0.0202178955078125
1772455359636948200,9.2679482421875,-0.9950103759765625,-0.143890380859375,0.0198974609375
1772455359646966300,9.27796630859375,-1.0379638671875,-0.1575927734375,0.0072021484375
1772455359656984300,9.287984375,-1.0883941650390625,-0.169708251953125,-0.0161285400390625
1772455359667002000,9.298002197265625,-1.13323974609375,-0.1662139892578125,-0.0453338623046875
1772455359677020400,9.3080205078125,-1.1595916748046875,-0.1420135498046875,-0.0630035400390625
1772455359687038200,9.3180380859375,-1.1839447021484375,-0.11773681640625,-0.0587005615234375
1772455359697055200,9.32805517578125,-1.2007293701171875,-0.092315673828125,-0.0514678955078125
1772455359707073300,9.3380732421875,-1.20953369140625,-0.067657470703125,-0.0373382568359375
1772455359717091300,9.34809130859375,-1.201995849609375,-0.038421630859375,-0.0157318115234375
1772455359727109000,9.358109130859376,-1.1863250732421875,-0.01507568359375,0.009368896484375
1772455359737127400,9.36812744140625,-1.1686248779296875,0.002044677734375,0.0412750244140625
1772455359747145200,9.378145263671875,-1.1527099609375,0.0150604248046875,0.0724639892578125
1772455359757163300,9.388163330078125,-1.1312408447265625,0.0311126708984375,0.103271484375
1772455359767181300,9.398181396484375,-1.095245361328125,0.0498199462890625,0.1215972900390625
1772455359777199400,9.408199462890625,-1.04833984375,0.06866455078125,0.1303863525390625
1772455359787216100,9.418216064453125,-0.997039794921875,0.0754852294921875,0.1302642822265625
1772455359797234200,9.428234130859375,-0.94659423828125,0.0685882568359375,0.1214752197265625
1772455359807252500,9.43825244140625,-0.89849853515625,0.0558929443359375,0.1116485595703125
1772455359817270300,9.448270263671875,-0.8505401611328125,0.04248046875,0.0897369384765625
1772455359827288300,9.458288330078124,-0.8098297119140625,0.02166748046875,0.0629425048828125
1772455359837306400,9.468306396484374,-0.7792816162109375,-0.0041656494140625,0.0427703857421875
1772455359847324400,9.478324462890624,-0.760986328125,-0.032257080078125,0.02984619140625
1772455359857342200,9.48834228515625,-0.75653076171875,-0.058441162109375,0.027587890625
1772455359867360300,9.4983603515625,-0.771575927734375,-0.0859222412109375,0.020965576171875
1772455359877377300,9.508377197265625,-0.805328369140625,-0.1060028076171875,0.0074005126953125
1772455359887395300,9.518395263671875,-0.8497772216796875,-0.1107330322265625,-0.008819580078125
1772455359897413400,9.528413330078125,-0.9003753662109375,-0.1050262451171875,-0.0259552001953125
1772455359907431400,9.538431396484375,-0.9451904296875,-0.08917236328125,-0.038177490234375
1772455359917449200,9.54844921875,-0.987030029296875,-0.0785980224609375,-0.0396270751953125
1772455359927467300,9.55846728515625,-1.0385894775390625,-0.075225830078125,-0.027587890625
1772455359937485300,9.5684853515625,-1.0786285400390625,-0.070404052734375,-0.0075531005859375
1772455359947503400,9.57850341796875,-1.1090850830078125,-0.059295654296875,0.0174102783203125
1772455359957521200,9.588521240234375,-1.1317901611328125,-0.0399932861328125,0.0410614013671875
1772455359967539200,9.598539306640625,-1.146209716796875,-0.019073486328125,0.0587921142578125
1772455359977556200,9.60855615234375,-1.150390625,-0.000640869140625,0.079803466796875
1772455359987574300,9.61857421875,-1.140350341796875,0.0106964111328125,0.1066131591796875
1772455359997592300,9.62859228515625,-1.1165618896484375,0.01904296875,0.1304931640625
1772455360007610400,9.6386103515625,-1.0777130126953125,0.01959228515625,0.14483642578125
1772455360017628200,9.648628173828126,-1.030029296875,0.011962890625,0.149261474609375
1772455360027646200,9.658646240234376,-0.98431396484375,-0.008087158203125,0.1505279541015625
1772455360037664500,9.66866455078125,-0.9405364990234375,-0.029327392578125,0.1480255126953125
1772455360047682300,9.678682373046875,-0.9025115966796875,-0.0454254150390625,0.140625
1772455360057700400,9.688700439453125,-0.868011474609375,-0.0548858642578125,0.1306915283203125
1772455360067717400,9.69871728515625,-0.840423583984375,-0.060546875,0.1204833984375
1772455360077735200,9.708735107421875,-0.818939208984375,-0.067474365234375,0.11083984375
1772455360087753200,9.718753173828125,-0.81103515625,-0.0810699462890625,0.0963134765625
1772455360097771500,9.728771484375,-0.8107452392578125,-0.099853515625,0.08154296875
1772455360107789300,9.738789306640625,-0.817352294921875,-0.1198577880859375,0.0633087158203125
1772455360117807400,9.748807373046875,-0.830078125,-0.1364898681640625,0.04766845703125
1772455360127825200,9.7588251953125,-0.8510894775390625,-0.1544952392578125,0.0372314453125
1772455360137843500,9.768843505859374,-0.88134765625,-0.1668701171875,0.026153564453125
1772455360147861200,9.778861328125,-0.9100189208984375,-0.17205810546875,0.0149383544921875
1772455360157878300,9.788878173828126,-0.9414520263671875,-0.17236328125,0.0096588134765625
1772455360167896300,9.798896240234376,-0.970672607421875,-0.1724700927734375,0.0036468505859375
1772455360177914400,9.808914306640625,-0.9959716796875,-0.173370361328125,0.003387451171875
1772455360187932200,9.81893212890625,-1.0168609619140625,-0.175323486328125,0.004974365234375
1772455360197950500,9.828950439453125,-1.032196044921875,-0.172698974609375,0.0061492919921875
1772455360207968300,9.83896826171875,-1.0407257080078125,-0.16827392578125,0.0123443603515625
1772455360217986300,9.848986328125,-1.040283203125,-0.1633148193359375,0.02069091796875
1772455360228004000,9.859004150390625,-1.0337371826171875,-0.1604156494140625,0.036346435546875
1772455360238022700,9.869022705078125,-1.027008056640625,-0.15777587890625,0.047637939453125
1772455360248039700,9.879039794921875,-1.0236968994140625,-0.15460205078125,0.0479278564453125
1772455360258057500,9.889057373046874,-1.0221099853515625,-0.1527252197265625,0.040283203125
1772455360268075800,9.89907568359375,-1.022430419921875,-0.1463623046875,0.024169921875
1772455360278093600,9.909093505859374,-1.027862548828125,-0.14361572265625,0.0062713623046875
1772455360288111600,9.919111572265624,-1.0288848876953125,-0.14129638671875,-0.0042572021484375
1772455360298129700,9.929129638671874,-1.029052734375,-0.13922119140625,-0.00665283203125
1772455360308147700,9.939147705078126,-1.0308990478515625,-0.1372833251953125,-0.001190185546875
1772455360318164500,9.94916455078125,-1.0266571044921875,-0.1286163330078125,-0.0000152587890625
1772455360328182800,9.959182861328125,-1.0154571533203125,-0.1147308349609375,0.0026092529296875
1772455360338200600,9.96920068359375,-1.013885498046875,-0.102142333984375,0.0042877197265625
1772455360348218600,9.979218505859375,-1.02825927734375,-0.100616455078125,0.006500244140625
1772455360358236700,9.989236572265625,-1.0483551025390625,-0.1011505126953125,-0.003173828125
1772455360368254700,9.999254638671875,-1.072418212890625,-0.09967041015625,-0.0189208984375
1772455360378272800,10.009272705078125,-1.093719482421875,-0.0948028564453125,-0.0358734130859375
1772455360388290600,10.01929052734375,-1.1098175048828125,-0.0882110595703125,-0.0440826416015625
1772455360398308900,10.029308837890625,-1.1227569580078125,-0.0835113525390625,-0.0402374267578125
1772455360408325600,10.03932568359375,-1.1320343017578125,-0.0740966796875,-0.0235137939453125
1772455360418343700,10.04934375,-1.141204833984375,-0.060333251953125,-0.002044677734375
1772455360428361700,10.05936181640625,-1.1440277099609375,-0.042999267578125,0.015289306640625
1772455360438379800,10.0693798828125,-1.1389617919921875,-0.0212249755859375,0.0345458984375
1772455360448397600,10.0793974609375,-1.1368560791015625,-0.000457763671875,0.056884765625
1772455360458415900,10.089415771484376,-1.1212005615234375,0.0154571533203125,0.0711669921875
1772455360468433700,10.09943359375,-1.10211181640625,0.0284423828125,0.0800323486328125
1772455360478451700,10.10945166015625,-1.0684051513671875,0.0351715087890625,0.08209228515625
1772455360488469500,10.119469482421875,-1.0386505126953125,0.0287322998046875,0.081298828125
1772455360498486800,10.12948681640625,-1.0034942626953125,0.0175628662109375,0.072113037109375
1772455360508504600,10.139504638671875,-0.9733734130859375,0.001617431640625,0.0535430908203125
1772455360518522600,10.149522705078125,-0.953460693359375,-0.0185546875,0.0256195068359375
1772455360528540700,10.159540771484375,-0.944793701171875,-0.03558349609375,-0.009063720703125
1772455360538558700,10.169558837890625,-0.9382476806640625,-0.051483154296875,-0.04058837890625
1772455360548576500,10.179576416015625,-0.9378204345703125,-0.06414794921875,-0.062591552734375
1772455360558594800,10.1895947265625,-0.93231201171875,-0.0692291259765625,-0.07623291015625
1772455360568612600,10.199612548828124,-0.9252166748046875,-0.0710906982421875,-0.08343505859375
1772455360578630700,10.209630615234374,-0.9216766357421875,-0.06536865234375,-0.08929443359375
1772455360588647700,10.219647705078126,-0.915374755859375,-0.0574493408203125,-0.0891876220703125
1772455360598665700,10.229665771484376,-0.914154052734375,-0.0452423095703125,-0.0820465087890625
1772455360608683500,10.23968359375,-0.9136810302734375,-0.0353546142578125,-0.068756103515625
1772455360618701800,10.249701904296876,-0.919036865234375,-0.028350830078125,-0.0553131103515625
1772455360628719600,10.2597197265625,-0.9374237060546875,-0.0203399658203125,-0.0392913818359375
1772455360638737700,10.269737548828125,-0.96282958984375,-0.0147705078125,-0.03240966796875
1772455360648755700,10.279755615234375,-0.9976043701171875,-0.014129638671875,-0.0224609375
1772455360658773800,10.289773681640625,-1.03448486328125,-0.0134429931640625,-0.0198516845703125
1772455360668791800,10.299791748046875,-1.06591796875,-0.014434814453125,-0.028594970703125
1772455360678809600,10.3098095703125,-1.084442138671875,-0.010986328125,-0.04571533203125
1772455360688827600,10.31982763671875,-1.0872344970703125,-0.0050811767578125,-0.0573272705078125
1772455360698845700,10.329845703125,-1.078125,-0.0016632080078125,-0.0554656982421875
1772455360708862700,10.33986279296875,-1.06182861328125,-0.00848388671875,-0.04583740234375
1772455360718880800,10.349880859375,-1.0379486083984375,-0.0225677490234375,-0.0348663330078125
1772455360728898800,10.35989892578125,-1.003173828125,-0.037872314453125,-0.033599853515625
1772455360738916600,10.36991650390625,-0.9637298583984375,-0.060943603515625,-0.044952392578125
1772455360748934700,10.3799345703125,-0.92974853515625,-0.0834808349609375,-0.061431884765625
1772455360758952700,10.38995263671875,-0.901641845703125,-0.1008453369140625,-0.0713653564453125
1772455360768970800,10.399970703125,-0.87969970703125,-0.1163330078125,-0.080810546875
1772455360778988500,10.409988525390625,-0.8665313720703125,-0.1219482421875,-0.087371826171875
1772455360789006600,10.420006591796875,-0.8560791015625,-0.112640380859375,-0.0854034423828125
1772455360799023600,10.430023681640625,-0.8560638427734375,-0.109893798828125,-0.07183837890625
1772455360809041700,10.440041748046875,-0.8636474609375,-0.1179351806640625,-0.0667724609375
1772455360819059700,10.450059814453125,-0.8762054443359375,-0.1205596923828125,-0.064971923828125
1772455360829077800,10.460077880859375,-0.8881683349609375,-0.1193084716796875,-0.0634613037109375
1772455360839095600,10.470095458984375,-0.90081787109375,-0.1167449951171875,-0.059967041015625
1772455360849113600,10.480113525390625,-0.9119415283203125,-0.113739013671875,-0.05584716796875
1772455360859131600,10.490131591796874,-0.9186248779296875,-0.1143646240234375,-0.04901123046875
1772455360869149700,10.500149658203124,-0.9321746826171875,-0.1161651611328125,-0.044586181640625
1772455360879167500,10.51016748046875,-0.941650390625,-0.116912841796875,-0.0456390380859375
1772455360889184800,10.520184814453126,-0.95782470703125,-0.1161041259765625,-0.0524139404296875
1772455360899202600,10.53020263671875,-0.971405029296875,-0.119842529296875,-0.0633392333984375
1772455360909220600,10.540220703125,-0.973724365234375,-0.1262969970703125,-0.0613250732421875
1772455360919238700,10.55023876953125,-0.967529296875,-0.128814697265625,-0.0545806884765625
1772455360929256700,10.560256591796875,-0.96185302734375,-0.12591552734375,-0.0442047119140625
1772455360939274800,10.570274658203125,-0.970123291015625,-0.1208648681640625,-0.033355712890625
1772455360949292500,10.58029248046875,-0.9852142333984375,-0.1093292236328125,-0.026947021484375
1772455360959310800,10.590310791015625,-1.0056915283203125,-0.099884033203125,-0.0273590087890625
1772455360969328600,10.60032861328125,-1.019989013671875,-0.093902587890625,-0.0270233154296875
1772455360979346700,10.6103466796875,-1.029541015625,-0.0894012451171875,-0.022735595703125
1772455360989363700,10.62036376953125,-1.035675048828125,-0.0879364013671875,-0.0196075439453125
1772455360999381800,10.6303818359375,-1.0406951904296875,-0.0917205810546875,-0.0227203369140625
1772455361009399600,10.640399658203124,-1.0396575927734375,-0.098114013671875,-0.028167724609375
1772455361019417900,10.65041796875,-1.0376739501953125,-0.1087646484375,-0.0354766845703125
1772455361029435600,10.660435546875,-1.0294952392578125,-0.1187286376953125,-0.048370361328125
1772455361039453700,10.67045361328125,-1.0268096923828125,-0.126312255859375,-0.0587921142578125
1772455361049471700,10.6804716796875,-1.0251922607421875,-0.130218505859375,-0.071136474609375
1772455361059489800,10.69048974609375,-1.022552490234375,-0.1266632080078125,-0.0800628662109375
1772455361069507600,10.700507568359376,-1.0147857666015625,-0.1195220947265625,-0.075531005859375
1772455361079524900,10.71052490234375,-1.00445556640625,-0.10992431640625,-0.0636749267578125
1772455361089542700,10.720542724609375,-0.9946746826171875,-0.1002197265625,-0.0468292236328125
1772455361099560700,10.730560791015625,-0.9927825927734375,-0.09783935546875,-0.0306854248046875
1772455361109578500,10.74057861328125,-1.0033111572265625,-0.0986480712890625,-0.0252227783203125
1772455361119596800,10.7505966796875,-1.0330810546875,-0.1075897216796875,-0.032196044921875
1772455361129614600,10.760614501953125,-1.0699615478515625,-0.117431640625,-0.058624267578125
1772455361139632600,10.770632568359375,-1.099578857421875,-0.1143035888671875,-0.0825958251953125
1772455361149650700,10.780650634765625,-1.11846923828125,-0.1040802001953125,-0.09014892578125
1772455361159668700,10.790668701171874,-1.13153076171875,-0.093170166015625,-0.07904052734375
1772455361169685500,10.800685546875,-1.1382293701171875,-0.072998046875,-0.05938720703125
1772455361179703800,10.810703857421874,-1.1364288330078125,-0.0384674072265625,-0.0457000732421875
1772455361189721600,10.8207216796875,-1.1268463134765625,-0.005767822265625,-0.0252227783203125
1772455361199739600,10.83073974609375,-1.114471435546875,0.0171051025390625,0.001068115234375
1772455361209757400,10.84075732421875,-1.1018218994140625,0.0298309326171875,0.02557373046875
1772455361219775700,10.850775634765625,-1.087738037109375,0.0338287353515625,0.045928955078125
1772455361229793800,10.860793701171875,-1.063568115234375,0.0385284423828125,0.05712890625
1772455361239811600,10.8708115234375,-1.0385589599609375,0.037506103515625,0.0641632080078125
1772455361249829600,10.88082958984375,-1.017303466796875,0.0324249267578125,0.06396484375
1772455361259846700,10.8908466796875,-0.99884033203125,0.0284423828125,0.0617218017578125
1772455361269864400,10.900864501953125,-0.990234375,0.028167724609375,0.058074951171875
1772455361279882800,10.9108828125,-0.98614501953125,0.0299224853515625,0.054718017578125
1772455361289900500,10.920900634765625,-0.98175048828125,0.0310821533203125,0.051727294921875
1772455361299918600,10.930918701171874,-0.973358154296875,0.0300140380859375,0.0462188720703125
1772455361309936600,10.9409365234375,-0.95684814453125,0.030364990234375,0.0397186279296875
1772455361319954700,10.95095458984375,-0.924163818359375,0.0285491943359375,0.0377044677734375
1772455361329972500,10.960972412109374,-0.887420654296875,0.0237274169921875,0.034942626953125
1772455361339990500,10.970990478515626,-0.8460235595703125,0.015838623046875,0.0352630615234375
1772455361350008600,10.981008544921876,-0.8136138916015625,0.0226593017578125,0.0480194091796875
1772455361360025600,10.991025634765625,-0.806488037109375,0.01226806640625,0.0767059326171875
1772455361370043400,11.00104345703125,-0.815887451171875,-0.0098724365234375,0.10638427734375
1772455361380061700,11.011061767578125,-0.833099365234375,-0.0178985595703125,0.08880615234375
1772455361390079500,11.02107958984375,-0.8750762939453125,-0.002838134765625,0.0688629150390625
1772455361400097500,11.03109765625,-0.9270782470703125,0.0117645263671875,0.0477447509765625
1772455361410115600,11.041115478515625,-0.974151611328125,0.014068603515625,0.032196044921875
1772455361420133600,11.051133544921875,-1.0340118408203125,0.01348876953125,0.0224609375
1772455361430151700,11.061151611328125,-1.0930023193359375,0.020721435546875,0.0115203857421875
1772455361440169500,11.07116943359375,-1.1349639892578125,0.034515380859375,0.0122528076171875
