time,seconds_elapsed,z,y,x
1772455350458064400,0.089064453125,-0.04484159676730633,-0.2041333832528442,0.6405885717581957
1772455350468082400,0.09908251953125,0.022770634734630583,-0.15088285458050668,0.5793989571822807
1772455350478100500,0.1091005859375,0.003397241222858429,-0.16703918574191629,0.5518072954993695
1772455350488117500,0.119117431640625,-0.06288578750193119,-0.2037039788596332,0.5642389801144599
1772455350498135300,0.12913525390625,-0.19693243889808654,-0.21667261989563702,0.5427893648505211
1772455350508153300,0.1391533203125,-0.3315004838198423,-0.16658910388685763,0.5265191615184769
1772455350518171400,0.14917138671875,-0.4827209728568792,-0.08987900836765765,0.5677571808358653
1772455350528189400,0.159189453125,-0.6440338168412446,-0.08818718282319604,0.6087372798694297
1772455350538207500,0.16920751953125,-0.7630921579420566,-0.1792332622088492,0.5722113472331315
1772455350548225300,0.179225341796875,-0.8123685222864151,-0.23673355728015302,0.4990095520958304
1772455350558243600,0.18924365234375,-0.8050058845639229,-0.2656083541087806,0.469246208929643
1772455350568260400,0.19926025390625,-0.7567869203180074,-0.26855821689032017,0.37752142656482757
1772455350578278400,0.2092783203125,-0.6785013191103935,-0.2423737551242113,0.23924298281781373
1772455350588296400,0.21929638671875,-0.547619853746891,-0.22334625244066117,0.11783723834063857
1772455350598314500,0.229314453125,-0.3891618146717548,-0.19947737414054573,0.05687956935707479
1772455350608332300,0.239332275390625,-0.22352584679126739,-0.17629552825652062,0.034951194132864474
1772455350618350600,0.2493505859375,-0.08126081762611866,-0.13926394765302538,0.021545769114792345
1772455350628368400,0.259368408203125,0.06818564747571945,-0.09055946491248905,0.08802990990225225
1772455350638385400,0.269385498046875,0.18824352100789546,-0.009512655363231896,0.18741569188162682
1772455350648403500,0.279403564453125,0.29482699593901635,0.029630072175338862,0.2758020505387336
1772455350658421500,0.28942138671875,0.33200317264497275,0.07296038759686052,0.3026800475269556
1772455350668439300,0.299439208984375,0.3066530428111553,0.12122757489867508,0.28755441112015395
1772455350678457600,0.30945751953125,0.25790859338641164,0.12629011898525058,0.2076128593990579
1772455350688475400,0.319475341796875,0.19222177698910234,0.12357201913297175,0.0631147374195978
1772455350698493400,0.329493408203125,0.1140104100614786,0.10685030917376279,-0.08585278505887836
1772455350708511200,0.33951123046875,0.10646130985617637,0.08010521785020827,-0.1959870478067547
1772455350718528500,0.349528564453125,0.12367372594177722,0.06866809723041951,-0.2820285603707656
1772455350728546300,0.35954638671875,0.18574819706082343,0.11146810516752302,-0.3149866809902713
1772455350738564600,0.369564697265625,0.3101794633716345,0.18994462583735583,-0.26841362078785896
1772455350748582400,0.37958251953125,0.4022475062161684,0.25620873066596683,-0.14654614055044948
1772455350758600400,0.389600341796875,0.47387598762214184,0.27078572021406144,-0.002701002587005496
1772455350768618200,0.3996181640625,0.4268073624551296,0.23418365360163151,0.07049845446273684
1772455350778636500,0.409636474609375,0.2772995225548744,0.2025651840880513,0.031236338328197596
1772455350788653300,0.4196533203125,0.11263795266449451,0.19311339206658304,-0.1017237599402666
1772455350798671400,0.42967138671875,0.0019037877947092054,0.17052242474779486,-0.2314756732845679
1772455350808689400,0.439689453125,-0.08809095590710639,0.09623166533000767,-0.3098568438211456
1772455350818707500,0.44970751953125,-0.05666589007377624,0.05114997619651258,-0.3416918786948547
1772455350828725200,0.459725341796875,0.08436287529468536,0.05542856683116406,-0.32710411202441897
1772455350838743600,0.46974365234375,0.20963643764853476,0.04852653235774487,-0.2253392163561657
1772455350848761300,0.47976123046875,0.24904198084175586,0.08168474212661385,-0.17391477059982716
1772455350858779400,0.489779296875,0.24117723881602285,0.0652730479646474,-0.1690144313376397
1772455350868796400,0.49979638671875,0.32612580504417416,0.11378653817772864,-0.14554905580449848
1772455350878814500,0.509814453125,0.4482920490324497,0.1362539156494662,-0.16119677985664457
1772455350888832300,0.519832275390625,0.48349955601394173,0.08895290649868548,-0.13269859778806567
1772455350898850600,0.5298505859375,0.400407431307435,-0.03563570579830557,-0.13593418217580766
1772455350908868400,0.539868408203125,0.2236778224825859,-0.19824308310523628,-0.20260854830574243
1772455350918886400,0.549886474609375,0.10693827971816063,-0.22556571858841926,-0.2995132905917242
1772455350928904400,0.559904541015625,0.03807049519717693,-0.18902857043836266,-0.29574191882684825
1772455350938921500,0.56992138671875,0.0027367314875125885,-0.12412691306937486,-0.22373967220503835
1772455350948939300,0.579939208984375,0.06628536681234837,-0.02475428283251822,-0.16762862126873807
1772455350958957300,0.589957275390625,0.10353694684207439,0.056588806249573825,-0.05114098917245864
1772455350968975400,0.599975341796875,0.12125906601548195,0.06683083533328026,0.11924226456666365
1772455350978993400,0.609993408203125,0.11086802038252352,0.01224752368722111,0.16603733348930252
1772455350989011500,0.620011474609375,0.06507891363203525,-0.06173659920049831,0.12037662062514573
1772455350999029500,0.630029541015625,0.012290741774439812,-0.1402018495576456,0.009702186585962771
1772455351009047600,0.640047607421875,-0.0035831191837787627,-0.22173607729766517,-0.06156235687844455
1772455351019064300,0.650064208984375,0.05241641593575477,-0.21658463108493015,-0.08261354740932583
1772455351029082600,0.66008251953125,0.1271913786739111,-0.1759830830401741,-0.08513597855903207
1772455351039100400,0.670100341796875,0.15149930597841738,-0.1199484583409503,-0.04769362519755959
1772455351049118500,0.680118408203125,0.09080372199714183,-0.04616102706911042,-0.030599940120801326
1772455351059136500,0.690136474609375,-0.002775309932231903,0.04942609327966347,0.04042452924372628
1772455351069154600,0.700154541015625,-0.07880407212376594,0.1540326421146281,0.14279089793646707
1772455351079172400,0.71017236328125,-0.07384148128032685,0.2485744729278609,0.3592648351885378
1772455351089190400,0.7201904296875,-0.046668227672576904,0.20820757388919592,0.5039536939671263
1772455351099207400,0.73020751953125,-0.040683308044075966,0.04295300654172897,0.4825204818487167
1772455351109225500,0.7402255859375,-0.012563713496923446,-0.09164548831721767,0.38970684480126944
1772455351119243300,0.7502431640625,0.018314239847660063,-0.1864967138731852,0.2734729865366593
1772455351129261600,0.760261474609375,0.12014672085940838,-0.2645755587286316,0.11913609164529479
1772455351139279400,0.770279296875,0.20554478442072868,-0.3217952284939587,-0.03448033435125835
1772455351149297400,0.78029736328125,0.24371815547049044,-0.34269711021464316,-0.16148321384890005
1772455351159315500,0.7903154296875,0.26671616922020913,-0.37318197258841246,-0.20932981938477604
1772455351169333500,0.80033349609375,0.3170522717505693,-0.3707559875505045,-0.2580877858782187
1772455351179350300,0.810350341796875,0.3469990817248821,-0.35513748959284275,-0.15178979509128257
1772455351189368600,0.82036865234375,0.325143223747611,-0.2762127136988565,0.001088863815786317
1772455351199386400,0.830386474609375,0.3040133419573307,-0.18428294681385157,0.039397606481937686
1772455351209404400,0.840404296875,0.26235622044503687,-0.10646926483376883,0.08721122306366451
1772455351219422500,0.85042236328125,0.12370470560193061,-0.09086431134426966,0.11070614435169845
1772455351229440500,0.8604404296875,0.002722118440270424,-0.08230732187121174,0.1168566937375348
1772455351239458600,0.87045849609375,0.26842297313809393,0.020237426462583242,0.16910744338333605
1772455351249476400,0.880476318359375,0.08303133442997931,-0.07842951232348569,0.2576038017535582
1772455351259493400,0.890493408203125,-0.20559213069379328,-0.2295419470093213,-0.07378852725038304
1772455351269511400,0.900511474609375,-0.2078618291914463,-0.25504896617159245,-0.45958731349613513
1772455351279529500,0.910529541015625,-0.41933425009548664,-0.2516730965303257,-0.4755758868752047
1772455351289547500,0.920547607421875,-0.3554693884283304,-0.3486596718808636,-0.4907071858378127
1772455351299565600,0.930565673828125,0.11313771888017654,-0.3480149807691574,-0.36716779033280905
1772455351309583400,0.940583251953125,0.8669634513050317,-0.1525166663274169,-0.05727653735198546
1772455351319601400,0.950601318359375,1.420060275158286,-0.024896490615070797,0.377023560045287
1772455351329619500,0.960619384765625,1.5183102215081452,-0.17842793717533348,0.6947464245337992
1772455351339636500,0.970636474609375,1.286632047921419,-0.3980278426945209,0.7094051375485956
1772455351349654500,0.980654541015625,0.8953045796483755,-0.4628590651758015,0.5456826751392334
1772455351359672600,0.990672607421875,0.511895629414916,-0.4442354671180248,0.22881701200194657
1772455351369690400,1.0006904296875,0.11286240907013416,-0.4181196866739541,-0.16305767835769802
1772455351379708400,1.01070849609375,-0.38520869313180445,-0.4028687433870509,-0.43943296220712363
1772455351389726500,1.0207265625,-0.7479781754404305,-0.36833424029629674,-0.636571225875616
1772455351399744500,1.03074462890625,-0.8658516906708479,-0.24897304379139093,-0.7065675760351121
1772455351409762300,1.04076220703125,-0.8722387613594531,-0.12115019881352782,-0.6312484964828938
1772455351419779600,1.050779541015625,-0.7788894465327263,-0.06776380533445626,-0.4506199439907446
1772455351429797400,1.06079736328125,-0.5548053813368081,-0.06067118019238114,-0.20177655446100978
1772455351439815400,1.0708154296875,-0.3099462391376495,-0.13175086860917506,0.05251872553275898
1772455351449833500,1.08083349609375,-0.08962064969241619,-0.18436182073634116,0.26419664241364227
1772455351459851500,1.0908515625,0.0574520720154047,-0.17596885358542202,0.3662977295000106
1772455351469869300,1.100869384765625,0.10176292290687561,-0.12710359079260378,0.31913711520060895
1772455351479887400,1.110887451171875,0.1229600247144699,-0.07224168140087277,0.21088939685169605
1772455351489904400,1.120904296875,0.07948445560336112,-0.07154043779633938,0.1001660273705609
1772455351499922400,1.13092236328125,-0.0345949280411005,-0.13138115851394833,0.07252818845836445
1772455351509940500,1.1409404296875,-0.21875088747441768,-0.18865199221093207,0.07754155964097008
1772455351519958500,1.15095849609375,-0.37295652980208394,-0.23595391467716542,-0.040938780642487106
1772455351529976300,1.160976318359375,-0.44198388879895206,-0.21888353741075842,-0.1016589145431295
1772455351539994400,1.170994384765625,-0.3826496562987566,-0.16233955668359995,-0.07887459834301844
1772455351550012400,1.181012451171875,-0.2554687990188598,-0.14216989822760223,0.028409371273964642
1772455351560030500,1.191030517578125,-0.11572890441715716,-0.15737700237277893,0.16283851918168366
1772455351570047500,1.201047607421875,0.041001872473955155,-0.18316124930754302,0.242615217463579
1772455351580065500,1.2110654296875,0.11296177779138088,-0.21777641641907391,0.2621828183731995
1772455351590083300,1.221083251953125,0.1731879906952381,-0.22674729305580257,0.19204072133377192
1772455351600101400,1.231101318359375,0.1501823781609535,-0.25838501525912433,0.08035800530118867
1772455351610119400,1.241119384765625,0.08962181873619555,-0.269259277831763,-0.024897161901928484
1772455351620137500,1.251137451171875,0.04870002576112747,-0.28121549042221156,-0.14846234943531453
1772455351630155500,1.261155517578125,0.09203063344359397,-0.2879935697223991,-0.19388980153286828
1772455351640173300,1.27117333984375,0.12558452799916267,-0.28410379574224354,-0.1576228486263193
1772455351650190300,1.2811904296875,0.14278759173452854,-0.2450815893108025,-0.04169184576580301
1772455351660208400,1.29120849609375,0.13420739491581915,-0.20052732158489525,0.026690420260559768
1772455351670226700,1.301226806640625,0.17257833436429498,-0.1876820512002334,0.028140765199344605
1772455351680244500,1.311244384765625,0.19564532169699667,-0.14610029647909104,0.07572236312348395
1772455351690262500,1.321262451171875,0.20625614756047725,-0.15312204834204166,0.11934177941838278
1772455351700280300,1.3312802734375,0.22266426152586935,-0.17534630124028772,0.12327309098532423
1772455351710298600,1.341298583984375,0.19144787000715732,-0.21756712104994802,0.13924601013753563
1772455351720316400,1.35131640625,0.15421441015601156,-0.2723137334989384,0.08765012593758292
1772455351730333400,1.36133349609375,0.05726970118582248,-0.2565190387241542,0.024091097082896158
1772455351740351500,1.3713515625,-0.07388707398772239,-0.22327242001947015,-0.060093051510863
1772455351750369500,1.38136962890625,-0.10771744739711284,-0.18907379781957714,-0.07327407492222264
1772455351760387300,1.39138720703125,-0.09556640635430812,-0.15834665112253277,0.015712605981901287
1772455351770405600,1.401405517578125,-0.07875964846014977,-0.1767800238378346,0.15008569458713755
1772455351780423400,1.41142333984375,-0.08481003454029559,-0.1795810162005946,0.2152392626242712
1772455351790441500,1.42144140625,-0.07089198382496834,-0.16110972262769938,0.20436138332244008
1772455351800459300,1.431459228515625,-0.040736499536037446,-0.1660341734178364,0.1686404469260946
1772455351810476500,1.4414765625,-0.009324293184280396,-0.2109902634102851,0.18565533114559948
1772455351820494300,1.451494384765625,0.04682897119224071,-0.26634255013484504,0.19994659908749163
1772455351830512600,1.4615126953125,0.06979308267235755,-0.3216878225967288,0.17042429813556373
1772455351840530400,1.471530517578125,0.08259469657838345,-0.33994284307044,0.1821559812551364
1772455351850548500,1.481548583984375,0.14369593875110148,-0.3160077676663175,0.18681356127001345
1772455351860566300,1.491566162109375,0.25186580609083176,-0.3034069187630899,0.24286740212636068
1772455351870584600,1.50158447265625,0.33329905767440793,-0.346202634117566,0.3461396884165704
1772455351880602400,1.511602294921875,0.32949440469443797,-0.37882779645565895,0.40606655304767186
1772455351890619400,1.521619384765625,0.291235693448782,-0.38324835284426806,0.37156032620333135
1772455351900637400,1.531637451171875,0.26391689389050005,-0.3645134764317423,0.28449082229845224
1772455351910655500,1.541655517578125,0.2803331911623478,-0.3197511554457247,0.18796601924076675
1772455351920673300,1.55167333984375,0.3042395519286394,-0.28906346397623417,0.20982989612771197
1772455351930691600,1.561691650390625,0.31913784585297106,-0.3081772567037493,0.3308531623596325
1772455351940709400,1.57170947265625,0.3161386640369892,-0.32271921147108074,0.4982616928705945
1772455351950727400,1.5817275390625,0.19641864415705204,-0.349523814429529,0.6229664788931608
1772455351960745500,1.591745361328125,-0.037976971694827076,-0.34606304298378526,0.6736636698208749
1772455351970762500,1.601762451171875,-0.32819910418689247,-0.2789103735513054,0.6494539421938359
1772455351980780300,1.6117802734375,-0.6352548825800418,-0.22003930158345028,0.5434276992866769
1772455351990798600,1.621798583984375,-0.8665519478946924,-0.1455371461709961,0.4100859447568655
1772455352000816400,1.63181640625,-0.9811217454046011,-0.07518299554977566,0.27100385647676883
1772455352010834400,1.64183447265625,-0.9573311199724673,-0.07039400770757347,0.19259440969377756
1772455352020852500,1.6518525390625,-0.8271727081865071,-0.13222341802436857,0.22797425930118187
1772455352030870500,1.66187060546875,-0.6243342601150274,-0.15765475986823438,0.2753104310968891
1772455352040887300,1.67188720703125,-0.3701233522027731,-0.13440858004372566,0.3017360446751117
1772455352050905300,1.6819052734375,-0.19300620536506174,-0.10248075232002883,0.22955707151321694
1772455352060923600,1.691923583984375,-0.09815817641317844,-0.1295633867685683,0.06102086584630888
1772455352070941400,1.70194140625,-0.013379706054925918,-0.20929191679349168,-0.14059015475548803
1772455352080959500,1.71195947265625,0.03389291725158691,-0.20017465395601466,-0.2152223480220884
1772455352090977500,1.7219775390625,0.01658990027308464,-0.09935556950420141,-0.1798747384501621
1772455352100995600,1.73199560546875,-0.03588730593919754,-0.06483690330339595,-0.11923784411987289
1772455352111013400,1.742013427734375,0.037759529551863666,-0.06255754192825407,-0.012045872768433764
1772455352121031400,1.752031494140625,0.15727496677041053,-0.03466887919330038,0.03783564526168629
1772455352131048400,1.76204833984375,0.217155727237463,-0.052364000761928035,0.009006113488535628
1772455352141066500,1.77206640625,0.27307518285810944,-0.07512594986660405,-0.029197076169110367
1772455352151084500,1.78208447265625,0.28268706081211564,-0.004792526939581148,-0.037429509862919805
1772455352161102600,1.7921025390625,0.3239455383956432,0.05198797052376903,-0.04705277914390899
1772455352171120400,1.802120361328125,0.33951895510256286,0.117620782578364,-0.06778147798846475
1772455352181138400,1.812138427734375,0.3703916477501392,0.13958046625629067,-0.06825328761814162
1772455352191156500,1.822156494140625,0.40922552853524685,0.11772104634875431,-0.07872633071243762
1772455352201173500,1.832173583984375,0.4505009572535753,0.09641329637407324,-0.10309883855259977
1772455352211191300,1.84219140625,0.4544599240124225,0.11125397835965267,-0.16501301367655397
1772455352221209600,1.852209716796875,0.6025380233705043,0.2134563247302547,-0.25806192078460005
1772455352231227400,1.862227294921875,0.7535287953048944,0.16534865710539742,-0.2521285669465549
1772455352241245200,1.8722451171875,0.7095552135437726,-0.01285564564820379,-0.2677686008825898
1772455352251263500,1.882263427734375,0.8088444398134946,-0.1454553496390581,-0.2822009029966779
1772455352261281300,1.89228125,0.7815501901745796,-0.1493925703569781,-0.15181334036365152
1772455352271299300,1.90229931640625,0.6693722562372684,-0.03669596457411535,-0.09851584901073947
1772455352281316400,1.91231640625,0.30599311759769915,0.11389730507582425,-0.09861239558723754
1772455352291334400,1.92233447265625,-0.18909283131361007,0.18230486994022502,-0.07679978309664875
1772455352301352200,1.932352294921875,-0.49931087312996386,0.0405613621648401,0.0583461758774938
1772455352311370500,1.94237060546875,-0.3320511034399271,-0.16964538618493824,0.1413823371796403
1772455352321388300,1.95238818359375,0.09152794461846352,-0.03141243011404295,0.13170962328333408
1772455352331406300,1.96240625,0.4929465987950563,-0.06291349749276415,0.2787905830965377
1772455352341424000,1.972424072265625,0.6638222208946943,-0.28154274961519987,0.413441283066757
1772455352351442400,1.9824423828125,0.6403063207507134,-0.44745322358813133,0.4733079419432208
1772455352361459200,1.992459228515625,0.4537520680040121,-0.4517262977974489,0.36307325102817267
1772455352371477200,2.002477294921875,0.16370879921019077,-0.3810693648373708,0.10325800203653052
1772455352381495300,2.012495361328125,-0.11748130104243755,-0.28958144170204175,-0.21040797001030295
1772455352391513300,2.022513427734375,-0.275233822196722,-0.29845048366580157,-0.4348364281971007
1772455352401531100,2.03253125,-0.26469313896000385,-0.2956334717500023,-0.47804541879389434
1772455352411549400,2.042549560546875,-0.11873276240825652,-0.33364958814512935,-0.3659141004772857
1772455352421567200,2.052567138671875,0.04796002104878425,-0.4097553245630115,-0.11505493241203948
1772455352431585300,2.062585205078125,0.14467735100388526,-0.44700179002620277,0.138754527693009
1772455352441602300,2.072602294921875,0.07398410462141036,-0.42863435868658123,0.3025026451334357
1772455352451620400,2.082620361328125,-0.11622224089205264,-0.3549610370473936,0.31213958446346224
1772455352461638100,2.09263818359375,-0.3307429434508085,-0.24622706955149767,0.28642431111168115
1772455352471656400,2.102656494140625,-0.4561386708796024,-0.1798139481736347,0.26081600526571275
1772455352481674200,2.11267431640625,-0.614317893013358,-0.15567783377207814,0.27967638948773965
1772455352491692300,2.1226923828125,-0.7581780824154615,-0.15248117488892748,0.27847274931902066
1772455352501710000,2.1327099609375,-0.8289660213440656,-0.1575374536314979,0.23422098993733523
1772455352511728400,2.142728271484375,-0.68889587187469,-0.10913686747467145,0.21023436700906603
1772455352521745200,2.1527451171875,-0.4382750974088907,-0.07547041592271998,0.2714904344173148
1772455352531763200,2.16276318359375,-0.1933779612869024,-0.04628596862303093,0.424852502060309
1772455352541781200,2.17278125,-0.0212450326025486,-0.07668852300820872,0.5610865439655259
1772455352551799300,2.18279931640625,0.12371931864917278,-0.16221163772130384,0.5829847797797992
1772455352561817300,2.1928173828125,0.2954465891420841,-0.22125298822214826,0.5350163927614688
1772455352571835400,2.20283544921875,0.45646249600648875,-0.30842754167038944,0.4437818415990099
1772455352581853400,2.212853515625,0.5804056865394115,-0.4373044257458299,0.355191302139312
1772455352591871200,2.222871337890625,0.6084872871637343,-0.5183992391552775,0.2794615046280436
1772455352601888300,2.23288818359375,0.6308218685686587,-0.5732963659908622,0.17232846952276304
1772455352611906300,2.24290625,0.6329296545028686,-0.5715380510814487,0.1256469257108867
1772455352621924400,2.25292431640625,0.5849024134367704,-0.5262177308864892,0.09940706222942099
1772455352631942400,2.2629423828125,0.46098961804211136,-0.4935642923019826,0.12897921193875372
1772455352641960400,2.27296044921875,0.3346329366266727,-0.4859028542960062,0.20720610522907226
1772455352651978200,2.282978271484375,0.17349428016543386,-0.5107451807381584,0.2426565541209653
1772455352661996300,2.292996337890625,-0.0164566292822361,-0.4715284746479243,0.24674150361334904
1772455352672014300,2.303014404296875,-0.21907763521075246,-0.4127938520086929,0.2709138401057571
1772455352682031400,2.31303125,-0.4394219293564558,-0.3564320594480261,0.3104166331283748
1772455352692049200,2.323049072265625,-0.6998492275655269,-0.3083247023504227,0.29531308068921786
1772455352702067500,2.3330673828125,-0.8842828348964452,-0.300497479323484,0.26673456339342516
1772455352712085200,2.343085205078125,-0.9416139108806848,-0.2764034139653668,0.19670926113408058
1772455352722103300,2.353103271484375,-0.9155337132066488,-0.19098310203962027,0.13290227626715787
1772455352732121300,2.363121337890625,-0.7538491133004427,-0.14869794828947633,0.09748257870655506
1772455352742139400,2.373139404296875,-0.45889001541435714,-0.14399965267172082,0.11720199091071262
1772455352752157200,2.3831572265625,-0.11141864000260829,-0.16876842068731784,0.18089600778929887
1772455352762174500,2.393174560546875,0.1616156263232231,-0.2224376131631434,0.2827230637072585
1772455352772192300,2.403192138671875,0.3895113587617874,-0.2741810252081603,0.3482212804635986
1772455352782210300,2.413210205078125,0.5189741894990205,-0.35082843075469133,0.34341800836771724
1772455352792228000,2.42322802734375,0.5827741692364216,-0.4085218737779185,0.2274154929072596
1772455352802246400,2.433246337890625,0.6014391222178935,-0.48960883267447347,0.09672760475394315
1772455352812264200,2.44326416015625,0.5935732111483812,-0.56890383012034,-0.061930961861973624
1772455352822282200,2.4532822265625,0.5126876565754414,-0.6756489984191953,-0.18973984224656595
1772455352832300300,2.46330029296875,0.38664427889287467,-0.7536116512827574,-0.27169172914307566
1772455352842318300,2.473318359375,0.27246377296149726,-0.7992985397677869,-0.3533111874811351
1772455352852335000,2.483335205078125,0.14125205273032188,-0.7874015465512871,-0.4168786371042952
1772455352862353400,2.493353515625,0.028601240584254263,-0.7932951346345245,-0.4635247625429183
1772455352872371200,2.50337109375,-0.09123334558606147,-0.771660591257736,-0.4695111069435253
1772455352882389200,2.51338916015625,-0.12562778261899948,-0.7306859721168876,-0.4864108768833801
1772455352892407300,2.5234072265625,-0.16961188577413558,-0.6617845775872468,-0.4713276183135807
1772455352902425300,2.53342529296875,-0.22333120100200174,-0.5912654821952804,-0.45150268164202567
1772455352912443400,2.543443359375,-0.23605741158425805,-0.5263100853450596,-0.4104940141011029
1772455352922460400,2.55346044921875,-0.22740005787611006,-0.5139894598890096,-0.3392239176787436
1772455352932478200,2.563478271484375,-0.2471931381046772,-0.53473677210249,-0.3123299194037914
1772455352942496300,2.573496337890625,-0.23737550844550132,-0.5837532068690284,-0.2950560554545373
1772455352952514300,2.583514404296875,-0.23429916974008083,-0.6338125748172402,-0.3196803186992183
1772455352962532400,2.593532470703125,-0.21983809818923472,-0.711801823426783,-0.38516277163084595
1772455352972550400,2.60355029296875,-0.18664426911771295,-0.7821016135122627,-0.4301658060375601
1772455352982568200,2.613568115234375,-0.14668284560739994,-0.8096692732650786,-0.42475835750345137
1772455352992586500,2.62358642578125,-0.07932078947424888,-0.8623951935414225,-0.3441865815874189
1772455353002603300,2.633603271484375,-0.02961830867230892,-0.9323818990897387,-0.16768612360963597
1772455353012621300,2.643621337890625,0.011846505138278007,-0.9554487402919679,-0.06176188890538178
1772455353022639400,2.653639404296875,0.020680968979001044,-0.9188373578619211,-0.04553941543889232
1772455353032657400,2.663657470703125,0.017973463585972786,-0.8835080511316656,-0.07978138359016738
1772455353042675200,2.67367529296875,-0.0324859730631113,-0.8669462809745222,-0.07006310438592918
1772455353052693200,2.683693359375,-0.16224281831085682,-0.9163632958985864,-0.05162706478950567
1772455353062711300,2.693711181640625,-0.2960048075467348,-0.9349774685408919,-0.10787094832523725
1772455353072729300,2.703729248046875,-0.34831776310801504,-0.8535526925247162,-0.14907498317463322
1772455353082747100,2.7137470703125,-0.3180015352994203,-0.7428807792361826,-0.22824671956701204
1772455353092764400,2.723764404296875,-0.2121189021140337,-0.650425417574495,-0.2470209964081645
1772455353102782200,2.7337822265625,-0.0827753138422966,-0.6436776238147169,-0.17534697709372266
1772455353112800300,2.74380029296875,0.04112754468023777,-0.7346884857565165,-0.05526331153316423
1772455353122818300,2.753818359375,0.15524433772563934,-0.7965139505505562,0.04612147594343405
1772455353132836400,2.76383642578125,0.25510697996914383,-0.801659789006412,0.08423606144408695
1772455353142854100,2.773854248046875,0.3193441820800304,-0.7452630712628364,0.043902334022661665
1772455353152872400,2.78387255859375,0.395868034312129,-0.663532736428827,-0.011317709190933965
1772455353162890200,2.79389013671875,0.4317220225036144,-0.6220533095709979,-0.025621551203320266
1772455353172907300,2.8039072265625,0.4056570223987102,-0.6811571673814207,-0.04214721115075517
1772455353182925300,2.81392529296875,0.3582090425252914,-0.7795255524791777,-0.08247036694581619
1772455353192943400,2.823943359375,0.2907037785291672,-0.8819157404389232,-0.12585276874760165
1772455353202961200,2.833961181640625,0.17992635903954504,-0.9301617388222366,-0.19697300837049259
1772455353212979200,2.843979248046875,0.13958382725715637,-0.9172682819142937,-0.287193633250054
1772455353222997200,2.853997314453125,0.1720592789262533,-0.8996006694070995,-0.3054695686476305
1772455353233015300,2.864015380859375,0.27434710249006744,-0.8909639931607991,-0.3058268028537743
1772455353243033300,2.874033447265625,0.39618075352311133,-0.9299811215583235,-0.2577529826995916
1772455353253050400,2.88405029296875,0.4962807116538286,-0.9915728506617247,-0.2231134300654754
1772455353263068400,2.894068359375,0.5854401735752821,-1.0098637826990335,-0.2182947777373716
1772455353273086200,2.904086181640625,0.682097882297635,-0.9942748030968009,-0.24722782582556826
1772455353283104500,2.9141044921875,0.7553267846375703,-0.946913770854473,-0.305835716812592
1772455353293122300,2.924122314453125,0.8329851938575505,-0.9026454439304769,-0.34387367971334604
1772455353303140400,2.934140380859375,0.8235048333287238,-0.8856117454126476,-0.3435074767494574
1772455353313158400,2.944158447265625,0.7538146265089511,-0.9135794373337179,-0.34035241025201973
1772455353323176400,2.954176513671875,0.6146224289178848,-0.9546406387794762,-0.37497345911506563
1772455353333193200,2.964193115234375,0.47607145183980465,-0.9719482588678597,-0.4406480370853096
1772455353343211500,2.97421142578125,0.3578916471391916,-0.9673729868415742,-0.4688565154923126
1772455353353229300,2.984229248046875,0.24346914914548395,-0.9732722009479999,-0.47303376464433966
1772455353363247400,2.994247314453125,0.08130056511461735,-0.9567786737214773,-0.4532555897239595
1772455353373265200,3.00426513671875,-0.05100011939704418,-0.9461207207806408,-0.46323082109764213
1772455353383283500,3.014283447265625,-0.1890653587847948,-0.9129089176610111,-0.45670068867653607
1772455353393301200,3.02430126953125,-0.26840543748140333,-0.8734143079448491,-0.45697190683335065
1772455353403319300,3.0343193359375,-0.323304317882657,-0.875501343351975,-0.4083125784087926
1772455353413336300,3.04433642578125,-0.3145709763288498,-0.8748208137419075,-0.39842086060009896
1772455353423354400,3.054354248046875,-0.2122615254551172,-0.8676070829708129,-0.39287542836740613
1772455353433372200,3.0643720703125,-0.0538923337072134,-0.8213392527926713,-0.43763267131950706
1772455353443390500,3.074390380859375,0.11350362958312034,-0.7802772476293146,-0.48706196120325473
1772455353453408300,3.084408203125,0.19188216977119443,-0.7784846651241183,-0.4870010978614911
1772455353463426300,3.09442626953125,0.1245639527797699,-0.827356686451286,-0.5272315475715323
1772455353473444000,3.104444091796875,-0.08939794685244559,-0.8943605767965316,-0.593440086288005
1772455353483462400,3.11446240234375,-0.442108976483345,-0.8778953988816589,-0.7067842875257134
1772455353493479200,3.124479248046875,-0.7971282830566168,-0.769704561819136,-0.7778067658625543
1772455353503497500,3.13449755859375,-1.1513163995027542,-0.573694498462975,-0.7976794871985912
1772455353513515300,3.144515380859375,-1.4723592021942138,-0.38440336809828873,-0.693764866150543
1772455353523533300,3.154533203125,-1.6531623440682888,-0.20620951367346568,-0.41168636569082734
1772455353533551400,3.16455126953125,-1.7432167090028523,-0.06959281999305822,-0.06684357608384453
1772455353543569400,3.1745693359375,-1.6660329315572977,0.12026015463862567,0.15187906254362313
1772455353553587500,3.18458740234375,-1.4073136063098908,0.3491667811527848,0.3275982156842947
1772455353563605200,3.194605224609375,-1.0250918200343846,0.4845179758088663,0.44434035226460544
1772455353573623300,3.204623291015625,-0.5858633674234152,0.5182348789064213,0.48807132090888916
1772455353583640300,3.214640380859375,-0.14446107790470122,0.43444246044345197,0.4890068481933325
1772455353593658400,3.224658447265625,0.2177127765983343,0.24073161394037304,0.43069070669449866
1772455353603676400,3.234676513671875,0.5194143344819545,0.05326703228256665,0.2689503032141365
1772455353613694500,3.244694580078125,0.7696089924901723,-0.12230369796389713,0.05352969267359003
1772455353623712300,3.254712158203125,0.9661211601495743,-0.2605107021762058,-0.19253749187476932
1772455353633730300,3.264730224609375,1.0961726044297218,-0.3197062933906913,-0.3615042116131633
1772455353643748400,3.274748291015625,1.152721005603671,-0.33522977000866083,-0.45224422072432935
1772455353653766400,3.284766357421875,1.13720604108572,-0.3068042878501117,-0.4322896663237363
1772455353663783400,3.294783447265625,1.0359440534383058,-0.23632077522817999,-0.291047185139358
1772455353673801500,3.304801513671875,0.8311644081711769,-0.11295059881024062,-0.013218113151891156
1772455353683819300,3.3148193359375,0.5210159244596958,0.0040402153015136714,0.1861670252610929
1772455353693837300,3.32483740234375,0.13518237742781639,0.060172619553096586,0.2589961511611007
1772455353703855400,3.33485546875,-0.27281916227042674,0.11294891830980777,0.3248467615516856
1772455353713873400,3.344873291015625,-0.604023293492198,0.246734215356037,0.3990443993259221
1772455353723891200,3.35489111328125,-0.7954466135799885,0.4518276027474552,0.49054607699196784
1772455353733909200,3.3649091796875,-0.7810907559692859,0.674646251117438,0.621527605196461
1772455353743927300,3.37492724609375,-0.593400192669034,0.8810276324927806,0.806852462278679
1772455353753944300,3.3849443359375,-0.3464063765287399,1.0177950871549546,1.011276279845461
1772455353763962400,3.39496240234375,-0.11356851151287554,1.124719484478235,1.2179896696541457
1772455353773980400,3.40498046875,0.11029109727740287,1.128991974165663,1.4083100700013338
1772455353783998200,3.414998291015625,0.27819851722121236,1.1177116515427827,1.4329818621821702
1772455353794016300,3.425016357421875,0.3953144920825958,1.0528072176948189,1.3110418281652032
1772455353804034300,3.435034423828125,0.4846382046550512,0.9758203510608523,1.1330755171522497
1772455353814052400,3.44505224609375,0.5788806689292192,0.8995946049924939,0.9259490164980292
1772455353824070400,3.4550703125,0.7079740818321705,0.846713713350147,0.77723203471452
1772455353834087400,3.46508740234375,0.83470193464756,0.7072276473790406,0.7148712939999997
1772455353844105200,3.475105224609375,0.9340946212917566,0.5702948826199397,0.6802043967012316
1772455353854123300,3.485123291015625,0.9420826974362134,0.4372454986328259,0.6184624454721808
1772455353864141300,3.495141357421875,0.915542481034994,0.3610193872382864,0.5321208174504339
1772455353874159400,3.505159423828125,0.8474737379372119,0.27457897501718254,0.4401989781435579
1772455353884177400,3.515177490234375,0.6935778922110796,0.17975907618124037,0.3564204786080867
1772455353894195200,3.5251953125,0.5008458276122808,0.11296035301927476,0.3482604068975895
1772455353904213500,3.535213623046875,0.320064897570014,0.07852826912337914,0.3448434745935723
1772455353914230300,3.545230224609375,0.1679290472537279,0.12777478631874545,0.3639707478571683
1772455353924248300,3.555248291015625,0.012805121037364005,0.18452331317467613,0.41740021329298616
1772455353934266400,3.565266357421875,-0.09448913251161575,0.18983102766135707,0.5191147670134901
1772455353944284400,3.575284423828125,-0.13242226506471633,0.19345959342205896,0.5555389563083648
1772455353954302200,3.58530224609375,-0.10861410397589207,0.15087366662705315,0.5940057573467493
1772455353964320500,3.595320556640625,0.00329085823893547,0.10229397930996492,0.656274143602699
1772455353974338300,3.60533837890625,0.20258418104946613,0.061221361421048635,0.6513550265748054
1772455353984356400,3.6153564453125,0.44549394274652,-0.007974741738848387,0.6622751375831664
1772455353994373400,3.625373291015625,0.6933388227581977,-0.11909344894681125,0.6779514301426708
1772455354004391400,3.635391357421875,0.8924912757933139,-0.2527589190056547,0.6949093600105494
1772455354014409200,3.6454091796875,1.0199988808095455,-0.38101584455184634,0.747373925936967
1772455354024427500,3.655427490234375,1.0684195051074028,-0.46698630117364226,0.7427987269759178
1772455354034445300,3.6654453125,0.9983727399349213,-0.522746766840294,0.7104123418297619
1772455354044463400,3.67546337890625,0.8720663274019956,-0.565387200301513,0.6412699781510979
1772455354054481200,3.685481201171875,0.7298568278163671,-0.5654211025711149,0.557347101708874
1772455354064499500,3.69549951171875,0.5905313592344522,-0.5649073078300804,0.5240799882054329
1772455354074516200,3.70551611328125,0.4294868107974529,-0.592197246620059,0.5199583051655441
1772455354084534500,3.715534423828125,0.32061493266820906,-0.6618491672560572,0.5254224888555705
1772455354094552300,3.72555224609375,0.22319968357682227,-0.7077158692874014,0.5541439217533916
1772455354104570400,3.7355703125,0.11135551163852214,-0.7862604136921465,0.5569360732225701
1772455354114588200,3.745588134765625,-0.03675648998916149,-0.8450526482701302,0.5735918418060988
1772455354124606500,3.7556064453125,-0.19331775553226468,-0.8798897875692695,0.545764983127825
1772455354134624300,3.765624267578125,-0.3050672349244356,-0.9284811653241515,0.4935379888169467
1772455354144642300,3.775642333984375,-0.39413258882164953,-1.0065124264445156,0.44412305625211446
1772455354154660400,3.785660400390625,-0.41290626287460325,-1.0750156885020434,0.43775290016569196
1772455354164677400,3.795677490234375,-0.4022206182092428,-1.1354411503050477,0.4505034780042246
1772455354174695200,3.805695068359375,-0.41908056759536266,-1.1919395748574286,0.5067884424690157
1772455354184713500,3.81571337890625,-0.44148236901760096,-1.2232010476268826,0.5410044541951269
1772455354194731300,3.825731201171875,-0.46014498391151426,-1.2062315003864466,0.6002912308244034
1772455354204749300,3.835749267578125,-0.45517304071784015,-1.1817290734231471,0.6297333426795899
1772455354214767000,3.84576708984375,-0.44018999111950396,-1.1695079628188163,0.6451053185302764
1772455354224785400,3.855785400390625,-0.40831425890922546,-1.1455531598009168,0.6447475911337882
1772455354234802700,3.865802734375,-0.3306733853459358,-1.1256621721558273,0.6179871561106294
1772455354244819700,3.87581982421875,-0.2580021168887615,-1.0851660572469233,0.6113846891056746
1772455354254837800,3.885837646484375,-0.2181394775778055,-1.0387200209576637,0.5838322634546086
1772455354264855600,3.89585546875,-0.1694891361773014,-1.0017914623372257,0.565322391436994
1772455354274873900,3.905873779296875,-0.1160848782479763,-0.9386326300475746,0.5261226364815608
1772455354284891600,3.9158916015625,-0.07691606642007827,-0.8701661928690969,0.48623486272934824
1772455354294909700,3.92590966796875,-0.014250059148669243,-0.8373291413459927,0.49065585750937457
1772455354304927500,3.935927490234375,-0.003645663025975227,-0.8064231309507042,0.5071555222157389
1772455354314945800,3.94594580078125,-0.05332534747421741,-0.7550778513778,0.4696100007407367
1772455354324963600,3.955963623046875,-0.1542962432205677,-0.7108830280814319,0.3714136842742562
1772455354334980600,3.965980712890625,-0.2799170115768909,-0.6920022403921932,0.28620909745842216
1772455354344998700,3.97599853515625,-0.4626642732560634,-0.7070123241279274,0.2560303418917581
1772455354355016700,3.9860166015625,-0.6663327424108981,-0.6965002093985676,0.2684780643261969
1772455354365034500,3.996034423828125,-0.8589221836686134,-0.6210890676487237,0.252310554183647
1772455354375052800,4.006052734375,-0.9957172569900751,-0.5116553909182548,0.21224702200572937
1772455354385070600,4.016070556640625,-1.1195493883639573,-0.3453465652775019,0.22720988733256234
1772455354395088600,4.026088623046875,-1.206039923337102,-0.1983486258389428,0.31171039926595984
1772455354405106700,4.036106689453125,-1.3199760991185903,-0.05286607309912797,0.4102532641477883
1772455354415123700,4.046123779296875,-1.4203069433957338,0.09034017787231131,0.492567682480067
1772455354425141500,4.0561416015625,-1.4617361013710497,0.23095880980361252,0.5214711574139074
1772455354435159800,4.066159912109375,-1.466623873412609,0.3813669230118394,0.5286855092395096
1772455354445177600,4.076177490234375,-1.3770803806096314,0.5247876980833709,0.5380547010114416
1772455354455195600,4.086195556640625,-1.1828238829225302,0.6363895126331597,0.5511349126631394
1772455354465213700,4.096213623046875,-0.9285071765482426,0.6960977660775184,0.5687271583791822
1772455354475231700,4.106231689453125,-0.6411661524504423,0.7084918220959603,0.5205260220509023
1772455354485249800,4.116249755859375,-0.3758089966237545,0.6964897610697894,0.41310744800250976
1772455354495267600,4.126267578125,-0.14821896913349628,0.6575087268989532,0.2432507571544498
1772455354505284900,4.136284912109375,0.11050269420146941,0.630155148288235,0.0731563302940689
1772455354515302700,4.146302734375,0.3688654610961675,0.5595009187418967,-0.09357569832797162
1772455354525320700,4.15632080078125,0.6120113696366548,0.49194933138601477,-0.2495249785857275
1772455354535338800,4.1663388671875,0.8820026150047778,0.47864634382911025,-0.38340778118968005
1772455354545356800,4.176356689453125,1.183081657075882,0.5315865644432604,-0.4819358868937939
1772455354555374600,4.18637451171875,1.4451795188456773,0.5885888833971694,-0.5964581920001656
1772455354565392600,4.196392578125,1.6529016473054885,0.598254975756444,-0.7062987690310925
1772455354575410700,4.20641064453125,1.7843436691612005,0.5696889160834252,-0.7827243485204876
1772455354585427700,4.216427734375,1.827505934539437,0.47388910283204166,-0.8233907784949988
1772455354595445800,4.22644580078125,1.717103193581104,0.35669527696147557,-0.8253453466288745
1772455354605463800,4.2364638671875,1.4472498953789472,0.2570350619548932,-0.8259404629778117
1772455354615481600,4.246481689453125,1.0502157398968934,0.18981818644609302,-0.8426732788529246
1772455354625499600,4.256499755859375,0.5999339783519506,0.17830679501369595,-0.9056879534315317
1772455354635517700,4.266517578125,0.10503858357667922,0.17514661394972353,-0.9957319431025534
1772455354645535700,4.27653564453125,-0.38283378069400786,0.2238567957786843,-1.000113446122408
1772455354655553500,4.286553466796875,-0.811437963438034,0.2809186994327232,-0.96556031139642
1772455354665570800,4.29657080078125,-1.1666057385712862,0.3099750633733347,-0.8694557795774192
1772455354675588600,4.306588623046875,-1.3897902245789766,0.3237530845634639,-0.7227317251767963
1772455354685606700,4.316606689453125,-1.4606658417910336,0.3686855744846165,-0.5597413033690303
1772455354695624700,4.326624755859375,-1.3895558313012122,0.39892117480505257,-0.4130491419440135
1772455354705642800,4.336642822265625,-1.14488958132565,0.380080317267403,-0.2950812264284119
1772455354715660500,4.34666064453125,-0.7651654570847749,0.32688641415312886,-0.2568903927871957
1772455354725678600,4.3566787109375,-0.33646132109761234,0.1946818286933936,-0.2670880347399041
1772455354735696600,4.366696533203125,0.08851590332090854,0.007234517830796539,-0.31097660509869457
1772455354745714700,4.376714599609375,0.48342473721206186,-0.16079039101283996,-0.3917708281263709
1772455354755731500,4.3867314453125,0.9055266984552145,-0.2763536930721253,-0.5054594954201951
1772455354765749800,4.396749755859375,1.3147925590008496,-0.3941202407967299,-0.592761127580516
1772455354775767600,4.406767578125,1.5990438003897667,-0.5313701086809859,-0.6659173665430397
1772455354785785600,4.41678564453125,1.839009909850359,-0.6485013907093554,-0.6781658035457134
1772455354795804000,4.426803955078125,1.9354741418272257,-0.7326056881330907,-0.6713385878741741
1772455354805821700,4.43682177734375,1.974860395798087,-0.7638490407239645,-0.6701192021470517
1772455354815839700,4.44683984375,1.8911258815348146,-0.7629220620721578,-0.6906620778296142
1772455354825857500,4.456857421875,1.7057149536043406,-0.7918301766484975,-0.7077072475895285
1772455354835875800,4.466875732421875,1.434098152860999,-0.8403943741355091,-0.6830729378748684
1772455354845892600,4.476892578125,1.0869091015219687,-0.8503191904962062,-0.6887094824571162
1772455354855910700,4.48691064453125,0.7174433364450931,-0.8112687443509697,-0.6433816365428269
1772455354865928700,4.4969287109375,0.4020978686124086,-0.7544223831437528,-0.5474205317825078
1772455354875946800,4.50694677734375,0.08023731979727744,-0.6974952848505228,-0.45606874744854864
1772455354885964500,4.516964599609375,-0.17739362569153308,-0.6267773424182087,-0.345047509265691
1772455354895982800,4.52698291015625,-0.3243605489373207,-0.5726806817779317,-0.25291253866478797
1772455354906000600,4.537000732421875,-0.4260895695745945,-0.5301022807022556,-0.23857094704145565
1772455354916018700,4.547018798828125,-0.4674953466743231,-0.5254848135020583,-0.2880729733678512
1772455354926035700,4.55703564453125,-0.4225689942330122,-0.5913099058588966,-0.3139137545291334
1772455354936053800,4.5670537109375,-0.2575046887606382,-0.6375453316047788,-0.3097929117394611
1772455354946071600,4.577071533203125,0.07494213599860668,-0.6645589376714081,-0.32028266850654036
1772455354956089900,4.58708984375,0.4284633129686117,-0.7198629648074507,-0.29807472742227836
1772455354966107600,4.597107666015625,0.755552994608879,-0.7688212031133472,-0.26244574362570416
1772455354976125700,4.607125732421875,0.9754144736737013,-0.786316746989265,-0.2255162168908864
1772455354986143500,4.6171435546875,1.0936392865598201,-0.8238050583843142,-0.13295556822381913
1772455354996161800,4.627161865234375,1.077850181275606,-0.8611052267961203,-0.0454651720257476
1772455355006178600,4.637178466796875,0.903106777831912,-0.9499581069864332,-0.026100582874938844
1772455355016196600,4.647196533203125,0.5455605831295252,-1.0543719097282738,-0.10900164198875427
1772455355026214700,4.657214599609375,0.10534136591553687,-1.0836948156505823,-0.24067376453960312
1772455355036232700,4.667232666015625,-0.2553179923713207,-1.0759757657058537,-0.4533469943344593
1772455355046250500,4.67725048828125,-0.5850368534713983,-1.0499810543581842,-0.601457644255273
1772455355056268800,4.687268798828125,-0.8339408871471882,-1.005163422988355,-0.6489950194451958
1772455355066286600,4.69728662109375,-0.9829273335218429,-0.9336579834401607,-0.5777929467577487
1772455355076304600,4.7073046875,-0.9936036258369684,-0.8848575660444795,-0.48252369671911
1772455355086322700,4.71732275390625,-0.8526958564996718,-0.7773455780915915,-0.40382074688225983
1772455355096339700,4.727339599609375,-0.6151064130425453,-0.6705394003205001,-0.3194100869230926
1772455355106357500,4.737357421875,-0.37813305565714833,-0.5924315668325871,-0.20941479425448922
1772455355116375800,4.747375732421875,-0.2725894451677799,-0.6102406701697036,-0.1467000524705276
1772455355126393600,4.7573935546875,-0.34635903025567527,-0.6982856315106153,-0.1590740520816296
1772455355136411600,4.76741162109375,-0.5522346540659666,-0.7730703849904239,-0.31790037647988645
1772455355146429700,4.7774296875,-0.7663286556452512,-0.7282276191793382,-0.5459286857895552
1772455355156447700,4.78744775390625,-1.0380360572814942,-0.5696145356729626,-0.7313686936840414
1772455355166465800,4.7974658203125,-1.2837550311803816,-0.3561213129984215,-0.8232905329909175
1772455355176482600,4.807482666015625,-1.507432269141078,-0.1585588691011071,-0.6928774157915264
1772455355186500900,4.8175009765625,-1.7791332410365341,-0.06616933921724558,-0.45977242427207526
1772455355196518700,4.8275185546875,-1.9858347942769525,0.0467627010229975,-0.22973854729365556
1772455355206536700,4.83753662109375,-2.1347388230651614,0.2200518505377695,-0.05417604601942003
1772455355216554800,4.8475546875,-2.2010154220491644,0.440012223399803,0.049819823571294546
1772455355226572800,4.85757275390625,-2.1156062525719403,0.6904371099673211,0.16053353017494082
1772455355236591400,4.86759130859375,-1.8716829299181699,0.9193782598055898,0.2641049272758886
1772455355246609400,4.877609375,-1.4794488681942224,1.0151621083028615,0.2910491213681176
1772455355256627200,4.887627197265625,-1.0013836121886968,1.0064412609044462,0.2437226124498993
1772455355266644500,4.89764453125,-0.48062663092613217,0.9314248175606131,0.21696868023276328
1772455355276662300,4.907662353515625,0.07910919255018234,0.8424632162988185,0.19897596395704895
1772455355286680600,4.9176806640625,0.6474328116297722,0.8079996595524251,0.17622801597826182
1772455355296698400,4.927698486328125,1.140423249566555,0.765589673846215,0.08219893872644751
1772455355306716400,4.93771630859375,1.5860153919905424,0.7387366651687771,0.024637926443852484
1772455355316734200,4.947734130859375,2.0445605394899844,0.7721386570982635,0.05620707692299038
1772455355326752500,4.95775244140625,2.4281921925634142,0.747828245575726,0.23794950894117353
1772455355336770600,4.9677705078125,2.7058266461610794,0.7479301715802401,0.364482533304207
1772455355346788400,4.977788330078125,2.816414680558443,0.7436306477554142,0.5039481410091743
1772455355356805400,4.987805419921875,2.7576673080354928,0.7751732024885714,0.5715487551385536
1772455355366823400,4.997823486328125,2.5852105542242527,0.7465740807961672,0.605153137772344
1772455355376841200,5.00784130859375,2.250661788749695,0.6734600370075553,0.6177902452990413
1772455355386859500,5.017859619140625,1.78331841776669,0.5448802727151661,0.437608742454648
1772455355396877600,5.027877685546875,1.2826368408054112,0.4461177006680518,0.14518493519984185
1772455355406895400,5.037895263671875,0.8032277689754962,0.38607349326759577,-0.14516109766652807
1772455355416913400,5.047913330078125,0.3376134137421846,0.3030921354591846,-0.2702044862600043
1772455355426931500,5.057931396484375,-0.1613157665938139,0.20896862138956784,-0.27089111681729555
1772455355436948500,5.067948486328125,-0.632901012930274,0.16079108513258397,-0.18970086194304747
1772455355446966500,5.077966552734375,-1.033477955585718,0.18455621079728007,-0.032515390953840685
1772455355456984600,5.087984619140625,-1.3421148656904696,0.2457370940774679,0.18476380739966405
1772455355467002400,5.09800244140625,-1.5726824476867913,0.3630963761754334,0.4633626307837665
1772455355477020400,5.1080205078125,-1.6403443635493515,0.5217039797890931,0.7049388057895004
1772455355487038500,5.11803857421875,-1.5707137779623268,0.6410811775807291,0.9787427413135766
1772455355497056500,5.128056396484375,-1.3474006971389054,0.7245176587454975,1.197262011989206
1772455355507074300,5.13807421875,-0.9842331554234027,0.7170555061712861,1.313452104177326
1772455355517092400,5.14809228515625,-0.5601940886378288,0.5611531794609501,1.3368285958506165
1772455355527109400,5.158109375,-0.1597603538453579,0.32858039512205867,1.26532724795565
1772455355537127400,5.16812744140625,0.1776139904439449,0.12676029378026724,1.087533736226335
1772455355547145500,5.1781455078125,0.5253109913051128,0.0039002223089337346,0.8739419850807636
1772455355557163500,5.18816357421875,0.7915425918787717,-0.09891644743457435,0.6985564843412488
1772455355567181300,5.198181396484375,1.0091577533215284,-0.1677170119382441,0.6392801195081323
1772455355577199400,5.208199462890625,1.2096961077570914,-0.22423845204003154,0.6295397198036312
1772455355587217400,5.218217529296875,1.3569021004557609,-0.25983400849103927,0.6052114803634584
1772455355597235500,5.2282353515625,1.4544605574101208,-0.3145214380986988,0.5919578118409962
1772455355607253200,5.238253173828125,1.5158464617431162,-0.34209216659143565,0.6253689369250088
1772455355617270500,5.2482705078125,1.5372703580439089,-0.37012232928946615,0.6160617410060018
1772455355627288300,5.258288330078125,1.4634966813027859,-0.4238843876805156,0.5808445163480938
1772455355637306400,5.268306396484375,1.291854166483879,-0.5106995514981448,0.5509114426381886
1772455355647324400,5.278324462890625,1.067993973171711,-0.6180827985048294,0.5502601391226053
1772455355657342500,5.288342529296875,0.7606845122784376,-0.6746531923148781,0.5093585852179676
1772455355667360300,5.2983603515625,0.4126695315092802,-0.7611834017112851,0.43816739925071596
1772455355677378300,5.30837841796875,0.08442074296176433,-0.818508705541864,0.35773663924057036
1772455355687396600,5.318396728515625,-0.13724924682974815,-0.8014388397321105,0.3384484032616019
1772455355697413400,5.328413330078125,-0.23310732960700986,-0.8188567152619362,0.35246691867671903
1772455355707431400,5.338431396484375,-0.20425182200074193,-0.8282767239056528,0.4406365658432245
1772455355717449500,5.348449462890625,-0.09409808736741543,-0.8586090260662138,0.5740981108278036
1772455355727467500,5.358467529296875,0.05275134697854519,-0.8583059514664113,0.723094128748402
1772455355737485300,5.3684853515625,0.08641630069315433,-0.9150871384829282,0.8355141278132796
1772455355747503600,5.378503662109375,0.01768178716301918,-0.975556147166714,0.8826610789135098
1772455355757521400,5.388521484375,-0.14991174452602862,-0.983209803725034,0.8349205458343029
1772455355767539500,5.39853955078125,-0.3160124073088169,-0.9386879404313861,0.6870713598612695
1772455355777557200,5.40855712890625,-0.36617139970660206,-0.8404467619098722,0.513908868933469
1772455355787574500,5.418574462890625,-0.4278928196042776,-0.7399044668391347,0.46875342044401913
1772455355797592300,5.42859228515625,-0.49643970160782336,-0.7017479007937014,0.4901465197477489
1772455355807610600,5.438610595703125,-0.655527270758152,-0.6971147611003369,0.5548402334544807
1772455355817628400,5.44862841796875,-0.799708947199583,-0.7120526563826948,0.5847019954938442
1772455355827646500,5.458646484375,-0.8685662103265523,-0.6960006623785943,0.5834381861031055
1772455355837664300,5.468664306640625,-0.8386123860895633,-0.6480996780406684,0.5396409107569605
1772455355847682600,5.4786826171875,-0.721833680358529,-0.5975020750299096,0.49789249423202125
1772455355857700400,5.488700439453125,-0.4577689024299383,-0.5855997115185484,0.4544353740930557
1772455355867718400,5.498718505859375,-0.17414076137542722,-0.6211895323485136,0.44586737916879354
1772455355877735400,5.5087353515625,-0.006702127987146377,-0.662343672774732,0.4087259084500372
1772455355887753500,5.51875341796875,0.012062778237462043,-0.6881548442490398,0.340981173142232
1772455355897771300,5.528771240234375,-0.12228022575676441,-0.6946006593875587,0.2467905303868465
1772455355907789600,5.53878955078125,-0.31958032892346383,-0.6544094457093625,0.13056235294435173
1772455355917807400,5.548807373046875,-0.5515788205057383,-0.5207298740599304,0.06219540321812965
1772455355927825400,5.558825439453125,-0.7563917835205793,-0.3744789535963908,0.06418857719618827
1772455355937843200,5.56884326171875,-0.9720984809935093,-0.24641386082787065,0.17953841916788368
1772455355947861500,5.578861572265625,-1.2212269710749386,-0.23236115088220685,0.3218970449006185
1772455355957878300,5.588878173828125,-1.4655226341724394,-0.24439932440137488,0.43276747643593694
1772455355967896600,5.598896484375,-1.6925158648133276,-0.20341977335708214,0.4935249832049012
1772455355977914400,5.608914306640625,-1.8135124805003404,-0.10690649634040891,0.5032239549204707
1772455355987932400,5.618932373046875,-1.7585276753813028,0.03070053268475458,0.5213018652616068
1772455355997950200,5.6289501953125,-1.490973301771283,0.17657443652944638,0.505230362839438
1772455356007968500,5.638968505859375,-1.052547982236743,0.2834163249347359,0.4868086074966937
1772455356017986600,5.648986572265625,-0.5648334388762712,0.33261600731369106,0.5127545843318104
1772455356028004400,5.65900439453125,-0.09969488446116447,0.3506438314354047,0.4934245550377294
1772455356038022400,5.6690224609375,0.34546704985201354,0.33707419229894875,0.436222804521583
1772455356048039400,5.679039306640625,0.7444833190619945,0.3156701332097873,0.3756192827379331
1772455356058057200,5.68905712890625,1.0520043768793343,0.29509368405118586,0.348526035563834
1772455356068075500,5.699075439453125,1.2680261316508055,0.27009726302586495,0.262141043324396
1772455356078093600,5.709093505859375,1.3058558038294314,0.24667163498122244,0.2210509445777163
1772455356088111400,5.719111328125,1.2167723297536372,0.2127730917064473,0.08481134971454739
1772455356098129400,5.72912939453125,0.9809890589356421,0.16849862730260937,-0.12019150071605109
1772455356108147500,5.7391474609375,0.696409900766611,0.16245116383191197,-0.3861454625252634
1772455356118165500,5.74916552734375,0.4639028751403093,0.22933416774384677,-0.6667085169207304
1772455356128183300,5.759183349609375,0.3349111690461635,0.351433082116954,-0.8475186730574816
1772455356138200600,5.76920068359375,0.32382045071125026,0.49213188487868753,-0.8740209686011076
1772455356148218400,5.77921826171875,0.33423546174168584,0.6368586645148694,-0.7507361689116805
1772455356158236400,5.789236328125,0.3400374260187149,0.7261124536562711,-0.514510159294866
1772455356168254500,5.79925439453125,0.28610242221355436,0.7924367642395198,-0.31833800071217117
1772455356178272500,5.8092724609375,0.13682196132838725,0.8148388579227029,-0.17036383665259927
1772455356188290300,5.819290283203125,-0.08002396930754184,0.7967049430780112,-0.16893055244646965
1772455356198308400,5.829308349609375,-0.36135377029180527,0.7299594114080071,-0.2900309025025926
1772455356208326400,5.839326416015625,-0.5872405009955167,0.6211905552618205,-0.5173601418985053
1772455356218344400,5.849344482421875,-0.6735428199201822,0.5216561951246113,-0.7067847989823669
1772455356228361500,5.859361572265625,-0.6007756898730993,0.3919135975979268,-0.8137075888704508
1772455356238379000,5.86937890625,-0.4230640842735767,0.28723566402718426,-0.8423433162461966
1772455356248396800,5.879396728515625,-0.11278174504935741,0.22230697252079842,-0.8011011322103441
1772455356258415000,5.8894150390625,0.25979016934931276,0.18809892490543423,-0.694287794046104
1772455356268433000,5.899432861328125,0.6007441256910562,0.12241481192186474,-0.5785905999414622
1772455356278451000,5.909450927734375,0.8678238675266504,0.009101663409546016,-0.4957906631145626
1772455356288468700,5.91946875,1.1108242301166058,-0.09304258696511387,-0.5034388032475486
1772455356298487000,5.929487060546875,1.324111591488123,-0.20209179442264139,-0.5681949146660045
1772455356308503800,5.93950390625,1.4527175131350756,-0.31082477553784843,-0.6400052189122885
1772455356318521900,5.94952197265625,1.5087971277534962,-0.48023427060768004,-0.6890010858148335
1772455356328540000,5.959539794921875,1.4946096124470234,-0.6132342624951154,-0.7019968340534717
1772455356338558000,5.969557861328125,1.4210136303603649,-0.7157685351006686,-0.722431500121206
1772455356348575700,5.97957568359375,1.3080308097809552,-0.7309259183526039,-0.6981151703145354
1772455356358594000,5.989593994140625,1.1917916177541017,-0.6729487995497881,-0.6629728375237435
1772455356368611800,5.99961181640625,1.0075736990004778,-0.6492639725796878,-0.5892926842849702
1772455356378628900,6.00962890625,0.8380734569072723,-0.6122721394646913,-0.47026364234387874
1772455356388647000,6.01964697265625,0.691820234888792,-0.5492314901946113,-0.34587055261898786
1772455356398665000,6.0296650390625,0.5856161146640777,-0.517010670873709,-0.19415532060125842
1772455356408682800,6.039682861328125,0.5162579162776469,-0.4607637368643656,-0.08142570759793744
1772455356418701000,6.049701171875,0.40115912645757196,-0.4482260711241513,0.020627594823949037
1772455356428718800,6.05971875,0.2955547256916761,-0.4870205332143232,0.12169091809410601
1772455356438737000,6.06973681640625,0.18628361911177635,-0.5486974563831463,0.16024284013267606
1772455356448755000,6.0797548828125,0.15148001675605774,-0.6222961053509265,0.09260189399290829
1772455356458773000,6.08977294921875,0.18372458227872848,-0.7015791200980543,-0.03234470142889768
1772455356468789800,6.099789794921875,0.2447995209664106,-0.7953744251266122,-0.07156595583008601
1772455356478807800,6.109807861328125,0.31560850268304347,-0.8707093598350882,-0.04451778990672901
1772455356488826000,6.119826171875,0.3707452834933996,-0.908044380364567,0.023595431653596458
1772455356498844000,6.129843994140625,0.4172907615691423,-0.9304946971036493,0.0951041408711113
1772455356508862000,6.139862060546875,0.3997890071481466,-0.9035284373100847,0.10439725346583872
1772455356518880000,6.1498798828125,0.2930886278390884,-0.8757080449052155,0.08574121444318443
1772455356528898000,6.15989794921875,0.09414952529370785,-0.8924093696635216,0.05379404269820079
1772455356538915800,6.169915771484375,-0.1749520777583122,-0.9496982139412313,-0.0020468312609009443
1772455356548934000,6.179933837890625,-0.47567456147670745,-1.0352635968934745,-0.14041404926991088
1772455356558951000,6.189950927734375,-0.7241741060048341,-1.0663647645346819,-0.2521345582959242
1772455356568969000,6.199968994140625,-0.8892302281707525,-1.023119277852401,-0.31116971651799974
1772455356578987000,6.209987060546875,-0.9529460367560386,-0.9663245737671852,-0.30191123684523624
1772455356589005000,6.220005126953125,-0.9581512041836976,-0.9366343689024448,-0.23951947993794453
1772455356599022800,6.23002294921875,-0.8660597804635762,-0.8764704075798392,-0.16032730354573577
1772455356609041000,6.240041015625,-0.761207659369707,-0.818868478764966,-0.0808415510344319
1772455356619059000,6.250058837890625,-0.642283758303523,-0.8458788699612021,-0.02869929413124919
1772455356629077000,6.260076904296875,-0.4630313530027866,-0.8351765664219856,-0.03298599500712007
1772455356639094800,6.2700947265625,-0.23331834200918672,-0.7903454179834574,-0.12984397554192692
1772455356649112000,6.280112060546875,-0.023242928421497343,-0.7699987224601209,-0.20639340060669928
1772455356659131000,6.290130859375,-0.0014028525352478027,-0.8234325718101113,-0.2264802030848339
1772455356669149000,6.30014892578125,-0.24219606046974657,-0.9892354206901043,-0.24427284847749395
1772455356679167000,6.3101669921875,-0.6793921304702758,-1.2155749366626143,-0.3323212986834347
1772455356689185000,6.32018505859375,-1.159352990964055,-1.2717537738718092,-0.5290950764210894
1772455356699203000,6.330203125,-1.5585674130946396,-1.1447208006300031,-0.6839193255711347
1772455356709219800,6.3402197265625,-1.9227309801101684,-0.9285143369413912,-0.7676024019081145
1772455356719238000,6.35023779296875,-2.2987223475635052,-0.7557539240084588,-0.6874114054705948
1772455356729256000,6.360255859375,-2.593576816031337,-0.5371233384454622,-0.5457694766398519
1772455356739274000,6.37027392578125,-2.790289474698901,-0.2430002895247191,-0.337130781324394
1772455356749291800,6.380291748046875,-2.8281349289685487,0.11304982140101491,-0.07001677189301699
1772455356759310000,6.39031005859375,-2.7234219240844246,0.5342163284249604,0.20068331586420535
1772455356769327900,6.400327880859375,-2.398153028130531,0.891098067869246,0.5048298557471483
1772455356779346000,6.410345947265625,-1.906824970448017,1.1725853975027798,0.7346573599658907
1772455356789364000,6.420364013671875,-1.2800193517833947,1.350442110661417,0.8525088094949722
1772455356799381000,6.430381103515625,-0.5578337892472743,1.4276771799027919,0.8666149301283061
1772455356809398800,6.440398681640625,0.09475158284008503,1.3640326829880476,0.7770854658506811
1772455356819417000,6.4504169921875,0.777944274637103,1.2954367011457681,0.5636082444628701
1772455356829435000,6.460434814453125,1.4596177940428257,1.1933268644973636,0.29261903756596147
1772455356839453000,6.470452880859375,2.062289672926068,1.0238885086592286,0.03250730811208486
1772455356849471000,6.480470947265625,2.5650790358215567,0.8075613412003964,-0.13932656456045805
1772455356859489000,6.490489013671875,2.944264230880141,0.5868442682195455,-0.16916896431222558
1772455356869506800,6.5005068359375,3.2416327279955146,0.4639143463823944,-0.12968107659779488
1772455356879524000,6.510524169921875,3.4214550421386956,0.4331863229025155,-0.023834464573860167
1772455356889542000,6.5205419921875,3.382842695149779,0.37911614841036495,0.19108214196730405
1772455356899560000,6.530559814453125,3.0603987934887407,0.2864568616744131,0.29368823770005253
1772455356909577700,6.54057763671875,2.480064418619871,0.19408640181720255,0.3231588449973613
1772455356919596000,6.550595947265625,1.808548136091232,0.14033961406052112,0.19032818179484456
1772455356929613800,6.56061376953125,1.0656412725657225,0.13463409589529038,-0.09575405614720657
1772455356939631900,6.5706318359375,0.2715367212444544,0.16416618758887053,-0.35548655875883994
1772455356949650000,6.58064990234375,-0.4399737180203199,0.22676081012450158,-0.41141624351255596
1772455356959668000,6.59066796875,-0.9980734647274017,0.3388412019714713,-0.20582095274729653
1772455356969686000,6.60068603515625,-1.419552910158038,0.44220469194278117,0.05857051811870187
1772455356979703000,6.610703125,-1.6288807202488182,0.6248360721573233,0.36013317898828534
1772455356989720800,6.620720947265625,-1.6449030497670172,0.8225919562675058,0.6505486055627465
1772455356999739000,6.63073876953125,-1.5067249976545571,0.9890905323266982,0.9318420931246131
1772455357009757000,6.6407568359375,-1.303036654755473,1.0667967262111604,1.1841918833401053
1772455357019775000,6.65077490234375,-1.0519295580774546,1.0765051964074372,1.3369003459125757
1772455357029793000,6.66079296875,-0.7196241876155137,1.0325256232969462,1.3328092772066593
1772455357039810800,6.670810791015625,-0.30806290960907934,0.9743685448173433,1.2063822339687496
1772455357049829000,6.6808291015625,0.16479484088122845,0.8591219440244138,1.0421931038957089
1772455357059846000,6.690845947265625,0.6700801122456789,0.6741131671540439,0.8757018343601375
1772455357069864000,6.700864013671875,1.1363479629516602,0.4710791965104639,0.7155651214830577
1772455357079882000,6.710882080078125,1.5119091222941874,0.31610892648585137,0.5519104636128992
1772455357089900000,6.720900146484375,1.8015245210647581,0.216392926171422,0.43345779678765683
1772455357099917800,6.730917724609375,2.020718476131558,0.07436930454671382,0.3879483472287655
1772455357109935900,6.740935791015625,2.1587544894248247,-0.07176584405004978,0.35433000913485885
1772455357119954000,6.750953857421875,2.156018342459202,-0.22163206893391907,0.35015959158241744
1772455357129972000,6.760971923828125,2.016394183191657,-0.3451932744119316,0.3023007476194762
1772455357139989800,6.77098974609375,1.7701526467233895,-0.46116811641417443,0.21304650182034818
1772455357150008000,6.781008056640625,1.3952099115401506,-0.5356972876977175,0.11072176204593852
1772455357160024800,6.79102490234375,0.9920967284053563,-0.6144385967835784,-0.004819921836582943
1772455357170043000,6.80104296875,0.6540940230846405,-0.6823209504637867,-0.1348399389320053
1772455357180061000,6.81106103515625,0.3895592895567417,-0.7512455066733061,-0.1394741198049858
1772455357190079000,6.821078857421875,0.17111995224952697,-0.8281263556495309,-0.045842659002053546
1772455357200096800,6.8310966796875,-0.04095569524466991,-0.8804246981635689,0.08515548697710036
1772455357210115000,6.841114990234375,-0.23171733655333518,-0.900134922414273,0.1698914699004963
1772455357220132900,6.8511328125,-0.4421697667598724,-0.9122353292483836,0.25479493661159647
1772455357230150400,6.861150390625,-0.6413081912696361,-0.8887309003464877,0.28404074044339356
1772455357240167400,6.87116748046875,-0.7687585131406783,-0.8811861109901219,0.2521903070711531
1772455357250185500,6.881185546875,-0.7976730574578046,-0.910648863774538,0.27895514427479357
1772455357260203300,6.891203369140625,-0.7727280012935399,-0.9827310802973807,0.3218574800752103
1772455357270221600,6.9012216796875,-0.7003197676867247,-1.0584534068882465,0.4298872813571244
1772455357280239400,6.9112392578125,-0.6318997269332408,-1.0804461891181767,0.5010373315963894
1772455357290257400,6.92125732421875,-0.5981219604939222,-1.0621044767417014,0.5135797465769574
1772455357300275200,6.931275146484375,-0.5576578481584787,-1.0024600092485547,0.4755670094490051
1772455357310293500,6.94129345703125,-0.5790361517518758,-0.9628020987294613,0.48766493206508454
1772455357320311300,6.951311279296875,-0.6064449676811695,-0.9353056775819509,0.4654827282102778
1772455357330328600,6.96132861328125,-0.6028162557899952,-0.883952141637355,0.41839543487541375
1772455357340346400,6.971346435546875,-0.5951186870247125,-0.8339832649841904,0.3428902216339484
1772455357350364400,6.981364501953125,-0.4850426938027143,-0.7662475532330573,0.24442486070143057
1772455357360382200,6.99138232421875,-0.2959153756976127,-0.6719960288695991,0.20662925518918782
1772455357370400500,7.001400390625,-0.06881693111658096,-0.58692902389355,0.2238672258411534
1772455357380418600,7.01141845703125,0.018013211074471472,-0.5659383679108694,0.24282836702391503
1772455357390436400,7.021436279296875,-0.05576455731987953,-0.5440042205329985,0.2872184206314385
1772455357400454400,7.031454345703125,-0.2964537203580141,-0.5050609245566651,0.27289547890964894
1772455357410472400,7.041472412109375,-0.5638847598493099,-0.35567546892706303,0.16048141639521343
1772455357420489200,7.0514892578125,-0.8582137431383132,-0.1676259361213073,0.013581978028221055
1772455357430507500,7.061507568359375,-1.1496066729754209,-0.017883081888779996,-0.07438799098087474
1772455357440525600,7.071525634765625,-1.4432225395590066,0.057120940364897246,-0.060128031492698936
1772455357450543400,7.08154345703125,-1.773059474080801,0.051949054152332245,0.047964459761884064
1772455357460561400,7.0915615234375,-2.0386738195389507,0.05275408692490309,0.13912585435658692
1772455357470579500,7.101579345703125,-2.1880758609771727,0.14050170928705483,0.20924188537299632
1772455357480597500,7.111597412109375,-2.136397696188092,0.28158125499468295,0.28327284307712686
1772455357490615300,7.121615234375,-1.9103981527596712,0.4205876476900652,0.36263248499073086
1772455357500633600,7.131633544921875,-1.510807883054018,0.5346778815221042,0.49535826304666697
1772455357510650400,7.141650390625,-0.9958213018864392,0.643434681904316,0.5630650044316425
1772455357520668400,7.15166845703125,-0.5512240157186985,0.6645645636945963,0.5915858732560649
1772455357530686500,7.1616865234375,-0.1273603055000305,0.6964706179779022,0.5026039598586037
1772455357540704500,7.17170458984375,0.25021453175246716,0.7179236673079431,0.3273870571516454
1772455357550722300,7.181722412109375,0.5497510205566882,0.7077848428703845,0.14168242523791266
1772455357560740400,7.191740234375,0.8389484861761332,0.6424409216266125,-0.035759003384411334
1772455357570758400,7.20175830078125,1.0266934100121259,0.5534644150566309,-0.23264354802016168
1772455357580776400,7.2117763671875,1.1408885289907456,0.4823500937178731,-0.4686007506329566
1772455357590794200,7.221794189453125,1.2020938160598278,0.43160840606130657,-0.7327335522964596
1772455357600812500,7.2318125,1.2003121933400631,0.40010340685956175,-0.9095641372777521
1772455357610829300,7.241829345703125,1.1437141078054904,0.4043031966369599,-0.9876452288892119
1772455357620847400,7.251847412109375,1.0872142219483851,0.4318395844686776,-0.9580268471516669
1772455357630865400,7.261865478515625,0.9465227257102727,0.5443299453560263,-0.8301661178488284
1772455357640883500,7.271883544921875,0.7131862635225057,0.6453891039077192,-0.6722700965706259
1772455357650901200,7.2819013671875,0.446247391462326,0.751811396927759,-0.5342467966284603
1772455357660919600,7.29191943359375,0.12266133402884005,0.8092672683354467,-0.392892014176026
1772455357670937600,7.3019375,-0.2446691725850105,0.8134684463523327,-0.2907249309150502
1772455357680955400,7.311955322265625,-0.5844675291508435,0.8277371371362358,-0.22705117137320338
1772455357690972400,7.321972412109375,-0.8900508969038724,0.8079450798209756,-0.2698821955030784
1772455357700990500,7.331990478515625,-1.1139771411895751,0.769896211933717,-0.40032895924374456
1772455357711008300,7.34200830078125,-1.2007798108518124,0.7397496416036039,-0.5180730759408325
1772455357721026300,7.3520263671875,-1.104937510165572,0.7223724634103477,-0.5934020192999392
1772455357731044600,7.362044677734375,-0.8657534909933805,0.6798357095193117,-0.6310126419004053
1772455357741062400,7.3720625,-0.38823125582337376,0.5789828871946782,-0.6460248445279896
1772455357751080400,7.38208056640625,0.12907587724626063,0.4905051969923079,-0.6721542881712317
1772455357761098500,7.392098388671875,0.6362351257890463,0.3707987672463059,-0.6632220630444586
1772455357771116500,7.402116455078125,1.1523632782071829,0.26911460866406556,-0.7054032084308565
1772455357781133300,7.41213330078125,1.6095423980504273,0.16677074406407771,-0.7029859912212938
1772455357791151600,7.422151611328125,1.9872446610748766,0.0424779363758862,-0.7356900640144943
1772455357801169400,7.43216943359375,2.236276705044508,-0.11817103687226771,-0.7732851967848837
1772455357811187500,7.4421875,2.373000466695428,-0.27819157602377237,-0.8457046824380755
1772455357821205500,7.45220556640625,2.4084464586079117,-0.4320560036983341,-0.962374301771447
1772455357831223600,7.4622236328125,2.335200020611286,-0.5213288628663867,-1.060850823418796
1772455357841241300,7.472241455078125,2.1407664127916095,-0.6021656098615378,-1.1255090274207293
1772455357851259400,7.48225927734375,1.8265864816069601,-0.6572451075267046,-1.1588603120762855
1772455357861277400,7.49227734375,1.4258108015090227,-0.6437932860836386,-1.1563402190141379
1772455357871295500,7.50229541015625,1.093078145545721,-0.5631151637163013,-1.1044843595705927
1772455357881312300,7.512312255859375,0.8385843290388584,-0.45307402261197566,-0.9623897185362875
1772455357891330600,7.52233056640625,0.6221504863351583,-0.3734754391096532,-0.7274974052086473
1772455357901348400,7.532348388671875,0.4291536333203316,-0.37857458887957035,-0.4846944283543154
1772455357911366400,7.542366455078125,0.24709552294909953,-0.3986954397577792,-0.27641349696796386
1772455357921384400,7.552384521484375,0.08935469223260879,-0.424851113820821,-0.22066446601077913
1772455357931402500,7.562402587890625,-0.026608605462312696,-0.4617258233621716,-0.20918975332695988
1772455357941420300,7.572420166015625,-0.10348258630633353,-0.4620545438598841,-0.192870778949745
1772455357951438300,7.582438232421875,-0.15235153889358044,-0.4826688042782247,-0.16277520815450697
1772455357961455400,7.592455322265625,-0.17021978853940964,-0.544644198936969,-0.13366981744039802
1772455357971473400,7.602473388671875,-0.16716040096879003,-0.627665011972934,-0.12986198612265287
1772455357981491200,7.6124912109375,-0.15095277801156043,-0.7248072893418371,-0.11727200567331164
1772455357991509500,7.622509521484375,-0.14081015418171883,-0.7811619215093553,-0.1147137725578621
1772455358001527300,7.63252734375,-0.17565642663538455,-0.8515876029968261,-0.12150778007954359
1772455358011545300,7.64254541015625,-0.23126900826394556,-0.940663332157582,-0.14915307164583355
1772455358021563600,7.652563720703125,-0.28312779031693935,-0.9695254156351089,-0.2002988831238821
1772455358031581400,7.66258154296875,-0.32953999740183354,-0.9871963160779327,-0.25389380478709933
1772455358041599500,7.672599609375,-0.3266086201250553,-0.9977946477860212,-0.3344302536614239
1772455358051616500,7.682616455078125,-0.2956634467631578,-0.9776506352279335,-0.35865722468420863
1772455358061634300,7.69263427734375,-0.2656429870307445,-0.9732046886697411,-0.42456754763908683
1772455358071652400,7.70265234375,-0.26867373302876946,-0.9717343238562345,-0.4801859744865447
1772455358081670400,7.71267041015625,-0.27528876725435253,-0.935164661676064,-0.5777767262753098
1772455358091688400,7.7226884765625,-0.2632341723233461,-0.8523968735530972,-0.6358299790542572
1772455358101706500,7.73270654296875,-0.18147651109099386,-0.7706492222581058,-0.6530733748000115
1772455358111724300,7.742724365234375,-0.10254501319527626,-0.7128060320332646,-0.5643217630270868
1772455358121742600,7.75274267578125,-0.16542612452208996,-0.6836169816236942,-0.4593366632033139
1772455358131760400,7.762760498046875,-0.42416824612319465,-0.7812423663344233,-0.49831996239647264
1772455358141778400,7.7727783203125,-0.8448539108276367,-0.9852810570411383,-0.6636500061329453
1772455358151795500,7.78279541015625,-1.2587532763928175,-1.1049314457509667,-0.9398661904305219
1772455358161813500,7.7928134765625,-1.553924555724859,-0.9603525136202573,-1.218925489199534
1772455358171831300,7.802831298828125,-1.7712357657849787,-0.6592278788417577,-1.3006801547572016
1772455358181849600,7.812849609375,-1.9479840793102978,-0.3034307197637856,-1.1575843738563358
1772455358191867400,7.822867431640625,-2.06655668272078,0.10027458404526114,-0.7869635935254394
1772455358201885400,7.832885498046875,-2.122663769868016,0.4809028540516272,-0.30031218588445335
1772455358211903200,7.8429033203125,-2.1645207978665826,0.7774658434703946,0.15496281737051903
1772455358221921500,7.852921630859375,-2.2167706250637766,1.0134219866372645,0.5579637357698753
1772455358231939600,7.862939697265625,-2.231602283492684,1.2126062961153685,0.8858278723813593
1772455358241957400,7.872957275390625,-2.1311586264908313,1.39592434341982,1.1319576190382241
1772455358251975400,7.882975341796875,-1.8078887953996656,1.576725731728226,1.2893266938328742
1772455358261993700,7.89299365234375,-1.3868231914669273,1.6834110595986247,1.250515171010047
1772455358272011500,7.903011474609375,-0.819243084231019,1.663700981478393,1.110482942398265
1772455358282029600,7.913029541015625,-0.12330898428261279,1.5550729951076208,0.9416509549554437
1772455358292047600,7.923047607421875,0.6132984868377447,1.404924080824852,0.7828823155611753
1772455358302065700,7.933065673828125,1.3643968401253224,1.269379738216847,0.5642553467273712
1772455358312083500,7.94308349609375,2.019196965652704,1.0897503893624991,0.36130598562732336
1772455358322101500,7.9531015625,2.610543732923269,0.9259076615743339,0.28601620523482557
1772455358332118500,7.963118408203125,3.0669489457845684,0.8001914700195193,0.25685988805107773
1772455358342136600,7.973136474609375,3.3418209489315744,0.7174437017712741,0.27707375097498294
1772455358352154400,7.983154296875,3.3760569805324074,0.643577159114927,0.2629882347382605
1772455358362172700,7.993172607421875,3.180448483714461,0.5781959015354514,0.21240166457816959
1772455358372190500,8.0031904296875,2.768293915989995,0.4539506593160331,0.1569398530645296
1772455358382208500,8.01320849609375,2.1547622049182653,0.3069150547482073,0.01001096027418971
1772455358392226600,8.0232265625,1.4336100770831108,0.20287724571190774,-0.18155425250232218
1772455358402244600,8.03324462890625,0.7318617378979921,0.183259668180719,-0.39349677513614295
1772455358412262400,8.043262451171875,0.09250818782746792,0.23529154177829623,-0.4757910639958456
1772455358422279700,8.05327978515625,-0.4625391855716705,0.288734158956632,-0.3623492110699415
1772455358432297500,8.06329736328125,-0.9763824419230223,0.35305100217498836,-0.07254263710882514
1772455358442315500,8.0733154296875,-1.3734580984592437,0.44364071609526873,0.26526969673894346
1772455358452333600,8.08333349609375,-1.6876228320747613,0.6166796537086368,0.587244775311835
1772455358462351600,8.0933515625,-1.887829762598872,0.8124672334205358,0.821988291285932
1772455358472369400,8.103369384765625,-1.933054221203923,0.9871230316460132,1.0694207180391997
1772455358482387500,8.113387451171874,-1.9025024310737848,1.1400339579880236,1.2760112851858139
1772455358492405800,8.12340576171875,-1.6424351983487606,1.2240292420793324,1.381267895427346
1772455358502423600,8.133423583984374,-1.1405103433281183,1.203456628845632,1.3488292686372994
1772455358512440300,8.1434404296875,-0.495558242598176,1.04445454602167,1.2458479098513722
1772455358522458600,8.153458740234376,0.12796119400262831,0.8276686019446701,1.1218769545286893
1772455358532476700,8.1634765625,0.7059855383634567,0.6193129248216748,0.9345707143709063
1772455358542494500,8.173494384765625,1.2142518713653088,0.4128484682727605,0.7803795389600098
1772455358552512800,8.1835126953125,1.6559651265293358,0.23569252379462122,0.6665311145272106
1772455358562530600,8.193530517578125,1.9901351218193768,0.039546997490525246,0.567636440533027
1772455358572548600,8.203548583984375,2.2527730818152425,-0.16411241157501935,0.48462717180438336
1772455358582566400,8.21356640625,2.4072061031579968,-0.3059789429418742,0.45331776823997494
1772455358592584700,8.223584716796875,2.4286066185832023,-0.4567286726620048,0.3671422540327534
1772455358602601500,8.2336015625,2.375389407658577,-0.5558953685306012,0.2475293843217194
1772455358612619500,8.24361962890625,2.2172657151043413,-0.6445827559608965,0.15699983962345868
1772455358622637600,8.253637451171874,1.9583955832093953,-0.6995582817949354,0.08944178599417209
1772455358632655600,8.263655517578124,1.5743454124629497,-0.7950080029670149,0.08642992735970764
1772455358642673400,8.27367333984375,1.1403180356264113,-0.8482120621491223,0.09781484286822378
1772455358652691700,8.283691650390624,0.6801584386676549,-0.8812407637868076,0.11398549481593072
1772455358662709500,8.29370947265625,0.23040216230154037,-0.888480432716757,0.16468133403677493
1772455358672727600,8.3037275390625,-0.18208850550949573,-0.8749738123465329,0.19701441809311507
1772455358682745300,8.313745361328126,-0.5229641359180212,-0.8482556820951401,0.23156167106758802
1772455358692762600,8.3237626953125,-0.7510363939672708,-0.8466397713311016,0.3304467004505917
1772455358702780400,8.333780517578125,-0.9267933583676814,-0.8423996495433151,0.4583136402985081
1772455358712798700,8.343798828125,-1.0596861635535955,-0.8479842447426169,0.5841199578221887
1772455358722816500,8.35381640625,-1.1430535980701446,-0.8291044799666851,0.6863141117531806
1772455358732834600,8.36383447265625,-1.2000351299643517,-0.8620772866986691,0.7270555066600441
1772455358742852400,8.373852294921875,-1.2395716060608624,-0.8826485116928815,0.751926474674791
1772455358752870700,8.38387060546875,-1.246111236962676,-0.933038755563274,0.6921756241977215
1772455358762888400,8.393888427734375,-1.191236906480789,-0.9907410760127008,0.5472936174672096
1772455358772906500,8.403906494140625,-1.060115787142515,-1.0402959650374948,0.43975397432241586
1772455358782923500,8.413923583984374,-0.8420458676695823,-1.091923422552645,0.3487061048384756
1772455358792941600,8.423941650390624,-0.590906622287631,-1.1217724712409078,0.31387199774663893
1772455358802959400,8.43395947265625,-0.372546195435524,-1.1251321569323538,0.3197378575727343
1772455358812977700,8.443977783203126,-0.2133779622644186,-1.0919820208720863,0.3573456306289881
1772455358822995700,8.45399560546875,-0.09626666357815265,-1.0278794049263,0.3532883911274373
1772455358833013500,8.464013427734375,-0.05484276629984378,-0.8932952856525779,0.3783783356551081
1772455358843031600,8.474031494140625,-0.06123275959789753,-0.7989162624519318,0.3800067405745387
1772455358853049600,8.484049560546875,-0.0730021078467369,-0.7362396607212722,0.31399646437652406
1772455358863067600,8.494067626953125,0.028112580284476277,-0.6633966158937662,0.20649810309018937
1772455358873084700,8.504084716796875,0.23338380846083162,-0.6080796562109142,0.14382931933980433
1772455358883102700,8.514102783203125,0.43182782096564765,-0.5711229674745351,0.2070326666246168
1772455358893120500,8.52412060546875,0.3759691556215286,-0.6229668442193418,0.36228747094534336
1772455358903138600,8.534138671875,0.08264964163601397,-0.7037108714297413,0.42486419249810276
1772455358913156600,8.544156494140625,-0.2667471488803625,-0.634988778989762,0.3722754156701267
1772455358923174700,8.554174560546874,-0.5878074872285127,-0.39855551983043547,0.23548951203580945
1772455358933192400,8.5641923828125,-0.7934738522022962,-0.17711645271796733,0.12480448353737592
1772455358943210500,8.57421044921875,-0.912222981223464,-0.018348397845588622,0.17207984679024665
1772455358953228500,8.584228515625,-0.9333984557211399,0.030939620403945444,0.3373406977480277
1772455358963245600,8.59424560546875,-1.0052759434521197,0.03515413282644003,0.49410179671216753
1772455358973263600,8.604263671875,-1.077072767162323,0.03751048669423908,0.5544376440029591
1772455358983281700,8.61428173828125,-1.1468670188784598,0.11461557288039476,0.5371611862378195
1772455358993299500,8.624299560546875,-1.1286322740077972,0.25254593384210017,0.5621060597389936
1772455359003317500,8.6343173828125,-1.0746318037509917,0.38316615445353086,0.6420271531939507
1772455359013335600,8.64433544921875,-0.9042483490824699,0.5645428949644788,0.7568286405678838
1772455359023353600,8.654353515625,-0.6887497414022684,0.6488305495984852,0.8322508882336318
1772455359033371400,8.664371337890625,-0.4078156617373228,0.6067183047298341,0.8457180533763021
1772455359043389400,8.674389404296875,-0.10518120691776275,0.5323544070106,0.7494796660445631
1772455359053406500,8.684406494140624,0.2557891170144081,0.460932663690485,0.5365045854926109
1772455359063424500,8.694424560546874,0.574237227037549,0.36947234094813464,0.33328254493102427
1772455359073442600,8.704442626953124,0.8686620719164609,0.27951201097257433,0.07234441112298517
1772455359083460600,8.714460693359374,1.043334748211503,0.10428798440508544,-0.17712251713257282
1772455359093478400,8.724478515625,1.122763674235344,-0.06436988857984542,-0.3886865618428215
1772455359103496400,8.734496337890626,1.1095242534339427,-0.20865663283094762,-0.5660372617080808
1772455359113514800,8.7445146484375,0.9906769247353077,-0.29213907202929257,-0.7584665439680218
1772455359123532500,8.754532470703126,0.879240164554119,-0.27895722663402556,-0.8919828148145228
1772455359133550600,8.764550537109375,0.7832640083551407,-0.15270276348404585,-0.9511990469582379
1772455359143567600,8.774567626953125,0.71483812238276,0.02730564781576395,-0.9343434814862907
1772455359153585400,8.78458544921875,0.6325193201363086,0.1980840200860053,-0.7796484482064843
1772455359163603500,8.794603515625,0.5240425788044929,0.33873584190085526,-0.5620622571298852
1772455359173621800,8.804621826171875,0.353892348369956,0.47732744325026866,-0.32726902026254684
1772455359183639600,8.8146396484375,0.14673720614314079,0.6064980861078948,-0.1584409600761719
1772455359193657600,8.82465771484375,-0.08697861075103283,0.6815727624449879,-0.07704908168260008
1772455359203675400,8.83467529296875,-0.4370347419589758,0.7260849080622196,-0.02857853556210175
1772455359213693700,8.844693603515625,-0.8145639865040779,0.7262073653981089,-0.022427849178947506
1772455359223711500,8.85471142578125,-1.2096177818238734,0.6625543929159641,-0.0050833128799684345
1772455359233728500,8.864728515625,-1.5731664318114518,0.6382036493830382,-0.019998850200045853
1772455359243746300,8.874746337890626,-1.7310557310879229,0.6595162673290819,-0.13960982021493837
1772455359253764400,8.884764404296876,-1.697159306704998,0.666840764998272,-0.2878906390708871
1772455359263782100,8.8947822265625,-1.4598767372399568,0.6162276721574366,-0.41257396218031644
1772455359273800400,8.904800537109375,-0.9435440021604299,0.505000243877992,-0.49108091452103103
1772455359283818200,8.914818359375,-0.306379486566782,0.36072935478314755,-0.5148403410973027
1772455359293836300,8.924836181640625,0.30566286273002624,0.20232458026520905,-0.514226337384805
1772455359303854300,8.934854248046875,0.9139408910572528,0.0940513986814767,-0.6173875827822833
1772455359313872400,8.944872314453125,1.4788994176179169,0.014429726564511657,-0.6659145169988274
1772455359323889200,8.95488916015625,1.9394787012934684,-0.10224522653110325,-0.6474406296100467
1772455359333907500,8.964907470703125,2.2821809626072644,-0.24028898473940788,-0.6432507036395371
1772455359343925200,8.97492529296875,2.5337083305239676,-0.36500272125340993,-0.6944734528113156
1772455359353943300,8.984943359375,2.7014035690218208,-0.44093876366019247,-0.7465845291249453
1772455359363961300,8.99496142578125,2.7510768237292766,-0.5221270275067538,-0.7774290185913443
1772455359373979400,9.0049794921875,2.6620266674011943,-0.5758008230924606,-0.7773649403791875
1772455359383997200,9.0149970703125,2.4480092381894587,-0.6310142493356019,-0.7668297370351851
1772455359394015200,9.02501513671875,2.072870103651285,-0.6576693242881446,-0.7089753678292036
1772455359404033300,9.035033203125,1.6172200930714606,-0.5830608772233128,-0.5791621892843395
1772455359414051300,9.04505126953125,1.1760106957763432,-0.4590937943581491,-0.45875857105441387
1772455359424068000,9.055068115234375,0.7197370003402233,-0.35242373712211844,-0.3346892699237913
1772455359434086400,9.06508642578125,0.3416922074884176,-0.27187362504862245,-0.1890367720111273
1772455359444104200,9.075104248046875,-0.04279226302206516,-0.23666370691433547,-0.07156391000347212
1772455359454122200,9.085122314453125,-0.3622013270318508,-0.1967830204900354,0.013693959635868667
1772455359464140300,9.095140380859375,-0.6185194363564253,-0.17270546787530183,0.12876423574751242
1772455359474158300,9.105158447265625,-0.8454249887138605,-0.1958472009446472,0.2018349883836694
1772455359484176400,9.11517626953125,-0.9352379461079835,-0.19446356456652283,0.28267856697840615
1772455359494194200,9.125194091796875,-0.8997253187000751,-0.2138372503392398,0.3629649318154901
1772455359504212500,9.13521240234375,-0.8097410963922739,-0.2671156899318099,0.40559893553592263
1772455359514229200,9.145229248046874,-0.624060703870654,-0.33208332520909606,0.43320948458239433
1772455359524247300,9.155247314453124,-0.44782443152070045,-0.4056303535874933,0.35388449385706333
1772455359534265300,9.165265380859376,-0.30798867532908913,-0.5184725235871971,0.2380681668847799
1772455359544283400,9.175283447265626,-0.19455811098217962,-0.6255510885588824,0.03198189599849283
1772455359554301200,9.18530126953125,-0.13988017985522747,-0.7191736673690379,-0.1753140612048097
1772455359564319500,9.195319580078126,-0.05421440526843071,-0.8064595174383372,-0.30541440439429135
1772455359574337300,9.205337158203125,0.012528057661652565,-0.8361652851983904,-0.36489794570468365
1772455359584355300,9.215355224609375,0.053615854853391647,-0.8836934176359326,-0.3500969381423667
1772455359594373000,9.225373046875,0.07044365553557873,-0.8875891829654574,-0.3247167419638485
1772455359604390400,9.235390380859375,0.12358370957076549,-0.8485200321197509,-0.2957013310881331
1772455359614408200,9.245408203125,0.1998398507773876,-0.7360164464246481,-0.25184947601053864
1772455359624426200,9.25542626953125,0.2385661795347929,-0.6446433270417153,-0.14628748961426316
1772455359634444300,9.2654443359375,0.11653437558114528,-0.5989137684587389,-0.09052494158837944
1772455359644462300,9.27546240234375,-0.23035364698469638,-0.7064190344098955,-0.14246597683103754
1772455359654480100,9.285480224609374,-0.7067611989110708,-0.8677890154089778,-0.3070473028257489
1772455359664498400,9.29549853515625,-1.185647708171606,-0.9190094264931976,-0.5560985629525035
1772455359674516200,9.30551611328125,-1.510178937500715,-0.777052221168205,-0.7702786353800445
1772455359684534300,9.3155341796875,-1.7416472677290438,-0.5653899037152529,-0.7714561547268182
1772455359694551300,9.32555126953125,-1.9360294376224279,-0.3471550760041922,-0.6878383256457745
1772455359704569300,9.3355693359375,-2.061955910927057,-0.13902655870057642,-0.5817747098702937
1772455359714587100,9.345587158203125,-2.0440660339713097,0.10908303666189312,-0.4033788483336568
1772455359724605400,9.35560546875,-1.9012036234349012,0.33635340374372896,-0.1812428667319007
1772455359734623200,9.365623291015625,-1.7298755813926456,0.5138668198900297,0.10466123816426842
1772455359744641300,9.375641357421875,-1.5770950034320355,0.6331055955916642,0.3848783286662772
1772455359754659000,9.3856591796875,-1.4022306039571761,0.7622864675823599,0.6937200040955096
1772455359764677400,9.395677490234375,-1.0925848090708254,0.9521244912400841,0.9030147156342864
1772455359774695400,9.4056953125,-0.6764782888501882,1.1580129014667122,1.0062274720232933
1772455359784712200,9.415712158203124,-0.1844464668124914,1.31972022466138,1.0118202505290508
1772455359794730200,9.425730224609374,0.3250233967602253,1.3354250126630067,0.9119036130759864
1772455359804748300,9.435748291015624,0.7807926498055457,1.2837418794378637,0.8028931301936507
1772455359814766300,9.445766357421874,1.2633593088835477,1.226116496682167,0.6129397365279495
1772455359824784400,9.455784423828124,1.6776853754281997,1.1400408261202275,0.3316914398146793
1772455359834802400,9.465802490234376,2.0109236428260804,0.9783927588321268,0.10169880816210061
1772455359844820200,9.4758203125,2.236377242809534,0.7817422056153416,-0.03028893794286996
1772455359854838300,9.48583837890625,2.3257646682679654,0.6019521132413298,-0.05798899190369993
1772455359864856300,9.495856201171875,2.252830364960432,0.3978128847695887,-0.04300855438755825
1772455359874873300,9.505873291015625,1.9714234070867298,0.205275612090528,-0.09928997518839314
1772455359884891400,9.515891357421875,1.5714134506642818,0.09384506245441734,-0.19075091898525132
1772455359894909400,9.525909423828125,1.0969587863713501,0.11415697892531752,-0.3245382435917854
1772455359904927200,9.53592724609375,0.6147387487739324,0.1840684272803366,-0.4237363209793344
1772455359914945300,9.5459453125,0.24156068517565726,0.2704353358738124,-0.4623507868601009
1772455359924963300,9.55596337890625,-0.24251930107474326,0.23222433622740207,-0.3868354175508022
1772455359934981400,9.5659814453125,-0.6909124723941087,0.18070004682578145,-0.2019988919747993
1772455359944999200,9.575999267578124,-1.0013052862554788,0.17355770079046487,0.041122265716921534
1772455359955017200,9.586017333984374,-1.2449655740588903,0.2855928652562201,0.2808970355901867
1772455359965035300,9.59603515625,-1.4180530269891023,0.43135844988822936,0.4712442508790642
1772455359975052300,9.60605224609375,-1.4908061285108327,0.5980274871435016,0.6593447101544588
1772455359985070300,9.6160703125,-1.4507254625350237,0.7157562601409853,0.8901390135787427
1772455359995088400,9.62608837890625,-1.2729478059619665,0.8149540087349713,1.1448913348913192
1772455360005106200,9.636106201171875,-0.9410404949069022,0.8462387162495404,1.3012852810434996
1772455360015124200,9.646124267578125,-0.49511517500579355,0.8309364446341991,1.3501285146676003
1772455360025142300,9.656142333984375,-0.03132803519964218,0.6915545696899295,1.3541785207107662
1772455360035160300,9.666160400390625,0.3917378026396036,0.5114851489178837,1.3243353172414003
1772455360045178400,9.676178466796875,0.7959124775260686,0.35793453643284734,1.2473947009019553
1772455360055196200,9.686196044921875,1.1392816783159971,0.27492804418317973,1.1544777130778878
1772455360065213200,9.696213134765625,1.4357850830346346,0.23511940008178353,1.0376817639511078
1772455360075231200,9.706231201171875,1.675709691441059,0.20903803336396812,0.9367115257918834
1772455360085249300,9.716249267578124,1.7901865499705074,0.12098287942260504,0.8212709367968142
1772455360095267300,9.726267333984374,1.8274702787041663,-0.030319150418043134,0.6777127990812063
1772455360105285400,9.736285400390624,1.779379909273982,-0.21827326002530753,0.5242447503130883
1772455360115303200,9.74630322265625,1.6825158643245697,-0.3837077870495617,0.38625312415082
1772455360125321500,9.756321533203124,1.512514102450013,-0.5610343388542532,0.2749149289732799
1772455360135339300,9.76633935546875,1.232649697843194,-0.7087136481530963,0.22213563454188406
1772455360145357300,9.776357421875,0.9529109654426574,-0.804487852039188,0.13007314465530215
1772455360155374300,9.786374267578125,0.6516296787977218,-0.8424979953512549,0.08462976433625444
1772455360165392400,9.796392333984375,0.3506722172796726,-0.8572562232177704,0.06651946782916784
1772455360175410200,9.80641015625,0.09510872571468353,-0.8937010899744927,0.05550958247839007
1772455360185428500,9.816428466796875,-0.12011632572114467,-0.9313671690892428,0.09772691798959858
1772455360195446300,9.8264462890625,-0.30259353828728197,-0.9452356085091829,0.10998939265077932
1772455360205464300,9.83646435546875,-0.40667350596487517,-0.9192045837391167,0.16691457298155873
1772455360215482000,9.846482177734375,-0.43754853670001026,-0.8935577359810472,0.2371964986167848
1772455360225500400,9.85650048828125,-0.38109833520352837,-0.8638532833952456,0.37695217530950903
1772455360235518700,9.866518798828125,-0.31917817786335945,-0.8396374182883649,0.5168058690166101
1772455360245535500,9.876535400390624,-0.2691045256614685,-0.7987349145356565,0.5784364322930574
1772455360255553800,9.8865537109375,-0.2579945181041956,-0.7783334200851619,0.554077870779857
1772455360265571600,9.896571533203126,-0.24003508304357526,-0.7106400861710309,0.43265754978805776
1772455360275589600,9.906589599609376,-0.2868254757910967,-0.663619026472792,0.27597824735585597
1772455360285607700,9.916607666015626,-0.32248832532465455,-0.6258903304506093,0.1558496101424098
1772455360295625700,9.926625732421876,-0.31505086880028244,-0.6147532156907022,0.10722485984088852
1772455360305643500,9.9366435546875,-0.3295961115032434,-0.593100771331042,0.15442027145903556
1772455360315660800,9.946660888671875,-0.31632980269491673,-0.5422320232287049,0.18160399166187272
1772455360325678600,9.9566787109375,-0.22076105825304984,-0.426849448031187,0.20493984079752117
1772455360335696600,9.966696533203125,-0.1514899536281824,-0.27809505684673785,0.2423116862060502
1772455360345714700,9.976714599609375,-0.23902444469630718,-0.24929887821227312,0.2866431232278235
1772455360355732700,9.986732666015625,-0.4249561816304922,-0.25918855019435283,0.27209435512721536
1772455360365749500,9.99674951171875,-0.6505448061704635,-0.27277802654244004,0.14832337935604153
1772455360375767800,10.006767822265624,-0.8788853597670793,-0.24165749661363659,-0.010075604741927235
1772455360385785600,10.01678564453125,-1.0505144305825234,-0.21724479376040398,-0.10987387651233002
1772455360395803600,10.0268037109375,-1.1883470302581787,-0.18476875756941735,-0.11096592779904603
1772455360405821400,10.036821533203126,-1.2913111456483601,-0.1340098995823413,0.01606291725691408
1772455360415839700,10.04683984375,-1.3849199881941079,-0.057435997663438314,0.22047102579791097
1772455360425857800,10.05685791015625,-1.4446885204583406,0.07847721478957682,0.4173019040176645
1772455360435875600,10.06687548828125,-1.3778472733289002,0.2558494323669001,0.5758916066484525
1772455360445894000,10.076893798828126,-1.389942200270295,0.4471211055569351,0.7931054572813212
1772455360455910700,10.08691064453125,-1.2672820352852343,0.6156267105896025,0.9573910334661603
1772455360465928400,10.096928466796875,-1.1056260769516228,0.7275286771297454,1.0296477297730744
1772455360475946800,10.10694677734375,-0.815270673468709,0.8407376346152275,1.0535477338638155
1772455360485964800,10.11696484375,-0.5069949978917837,0.8395654490306973,1.0392705675125122
1772455360495982600,10.126982666015625,-0.18287527197301387,0.7722542463019489,0.9761090318091213
1772455360506000600,10.137000732421875,0.14236732049584389,0.6723441116549074,0.8293972523681818
1772455360516018700,10.147018798828125,0.3746370302349329,0.545182762793079,0.5850235190657899
1772455360526036700,10.15703662109375,0.48328503648042676,0.4077186311036348,0.2713905177067965
1772455360536054500,10.167054443359374,0.5482388624280691,0.31817301940880716,-0.05880038135182112
1772455360546072800,10.17707275390625,0.5730775356084108,0.2189616076156497,-0.30574122519586233
1772455360556089600,10.187089599609376,0.5881079314798117,0.19495339391008018,-0.4673241913584992
1772455360566107600,10.197107666015626,0.6687544165998697,0.19875475895442068,-0.5654829157609492
1772455360576125700,10.207125732421876,0.7078647762387991,0.25105164016373455,-0.6423535356041044
1772455360586143700,10.217143798828126,0.7675088053405285,0.3267348037879914,-0.692600352415815
1772455360596161500,10.22716162109375,0.7921621850818396,0.4212663872018456,-0.6668006521835923
1772455360606179800,10.237179931640625,0.8027496300697327,0.5371352846115828,-0.5785279465014115
1772455360616197600,10.24719775390625,0.7839046443462372,0.591018558229506,-0.4723858951948583
1772455360626215700,10.257215576171875,0.6531687249332666,0.6390544940587133,-0.3429654422946274
1772455360636232700,10.267232666015625,0.43112756374180317,0.6778004773646593,-0.24708058110829442
1772455360646250800,10.277250732421875,0.1295043317914009,0.6595645634502172,-0.1660008922027424
1772455360656268500,10.2872685546875,-0.23843758471906185,0.6455014051757753,-0.10253433653763495
1772455360666287600,10.29728759765625,-0.5637959125220775,0.6120030401997267,-0.13638344204695896
1772455360676305700,10.3073056640625,-0.8143073813945054,0.6080076869532466,-0.2947162655735388
1772455360686323700,10.31732373046875,-0.884540609049797,0.6449236052878201,-0.451418218228966
1772455360696341800,10.327341796875,-0.8386883739352226,0.700712201070413,-0.49113235244732345
1772455360706358800,10.33735888671875,-0.6967623674660921,0.6638108957830816,-0.442889459336549
1772455360716376800,10.347376953125,-0.5001449858665467,0.5495357703708111,-0.35082159915510563
1772455360726394600,10.35739453125,-0.20396715984046457,0.4188102262213826,-0.30405027643423527
1772455360736412700,10.36741259765625,0.18527122719883918,0.25076968141719697,-0.3946498176287859
1772455360746430700,10.3774306640625,0.5522416683286429,0.04520253903418779,-0.567090241359733
1772455360756448800,10.38744873046875,0.8373463116765022,-0.11622647867575286,-0.6935524655088782
1772455360766466600,10.397466552734375,1.0777373685508966,-0.24143289407752452,-0.7926691847559064
1772455360776484600,10.407484619140625,1.219074176955223,-0.34233255121856926,-0.8613483148369938
1772455360786502700,10.417502685546875,1.3515899655222892,-0.25748086949363347,-0.8911000406306236
1772455360796519700,10.427519775390625,1.3714905977785588,-0.18537344546429813,-0.7784649375103414
1772455360806537700,10.437537841796875,1.326229898816347,-0.23399426850937305,-0.6796853412631899
1772455360816555800,10.4475556640625,1.222071020683646,-0.30310199926607306,-0.6755537944164127
1772455360826573600,10.457573486328124,1.0947855339854955,-0.3082362934146076,-0.6568406183790415
1772455360836591600,10.467591552734374,0.9824988789767026,-0.3029523616623133,-0.6396715299785137
1772455360846609700,10.477609619140624,0.8601642926841974,-0.29406704441718756,-0.6081733989089727
1772455360856627700,10.487627685546874,0.7871528324872255,-0.30566527388282116,-0.5486252313971519
1772455360866645500,10.4976455078125,0.6921528278440237,-0.33069377054683863,-0.48494036593940104
1772455360876663800,10.507663818359376,0.5766600702702999,-0.3607749474905431,-0.46801513276472684
1772455360886680600,10.5176806640625,0.45452012976706024,-0.3619239713951945,-0.5031285317219794
1772455360896698600,10.52769873046875,0.2844026325583458,-0.39654359548613427,-0.6057475965341552
1772455360906716700,10.537716552734375,0.2285486433893442,-0.47258353665880853,-0.6303770474106073
1772455360916734700,10.547734619140625,0.2619727740854025,-0.5458403499189763,-0.5733986207889392
1772455360926752500,10.55775244140625,0.3384644776135683,-0.5568162827678025,-0.47716330219712105
1772455360936770600,10.5677705078125,0.31118133389055724,-0.533459957099706,-0.3703845969548449
1772455360946788900,10.577788818359375,0.18273790932893752,-0.46044601268470287,-0.27494557983987034
1772455360956806700,10.587806640625,-0.0028337621212005614,-0.3863377702269703,-0.2574742936223745
1772455360966824700,10.59782470703125,-0.17337094604671,-0.33269919208511706,-0.27120741622485217
1772455360976842800,10.6078427734375,-0.2719587460488081,-0.2947286866636947,-0.2458896542906761
1772455360986859500,10.617859619140624,-0.3456307159811258,-0.27163627262879164,-0.21010454835062845
1772455360996877600,10.627877685546874,-0.3983136738985777,-0.29664434755928815,-0.23325804492300375
1772455361006895900,10.637895751953126,-0.4152057719886303,-0.3515964194525033,-0.2814248588565737
1772455361016913700,10.64791357421875,-0.4073305085688829,-0.425773672025837,-0.3488570576164871
1772455361026931700,10.657931640625,-0.3421200775116682,-0.5199819417694583,-0.4650774718776345
1772455361036949800,10.66794970703125,-0.28787235449552534,-0.5777966730847954,-0.5794366953767836
1772455361046967800,10.6779677734375,-0.27561493046879765,-0.621954890697822,-0.6969635160613805
1772455361056985600,10.687985595703125,-0.25684125641584393,-0.6061142744220793,-0.8335792142279446
1772455361067003600,10.698003662109375,-0.20494798757135868,-0.514476512753591,-0.8434357876580209
1772455361077020700,10.708020751953125,-0.10502864670455456,-0.4452016087364405,-0.7677068121306597
1772455361087038700,10.718038818359375,-0.0005137947410345078,-0.3262446821834892,-0.6453631657488643
1772455361097056500,10.728056396484375,0.038655017086863516,-0.2888874498222023,-0.48164979996141044
1772455361107074800,10.73807470703125,0.009897709158062934,-0.2942057953007519,-0.3788695532381534
1772455361117092600,10.748092529296875,-0.2248971351444721,-0.3686905429206788,-0.3876215994924307
1772455361127110700,10.758110595703124,-0.5751981810241937,-0.48454658084884283,-0.5614587382787838
1772455361137128700,10.768128662109374,-0.9083312344819306,-0.5267868360113352,-0.8274101702041924
1772455361147146800,10.778146728515624,-1.1243488976001739,-0.45803464069403704,-0.9406360057592391
1772455361157164500,10.78816455078125,-1.2585966245263813,-0.38444048523828384,-0.9118032214414328
1772455361167181800,10.798181884765626,-1.3647867162257432,-0.2582800935799256,-0.6891608794864267
1772455361177199600,10.80819970703125,-1.3672422926843166,0.006254347687028348,-0.5522591674527153
1772455361187217700,10.8182177734375,-1.2938947324007748,0.32930410628672685,-0.39442729745190586
1772455361197235700,10.828235595703125,-1.174069498580694,0.5557785737505182,-0.1552710430694744
1772455361207253800,10.838253662109375,-1.054280505117774,0.6917462928697466,0.06368239950602873
1772455361217271600,10.848271484375,-0.9239870687752961,0.7306595225013792,0.26444438836332407
1772455361227289600,10.85828955078125,-0.7335100896269082,0.7702873301431536,0.37496355877555904
1772455361237307600,10.8683076171875,-0.48023967743515966,0.7822180794987827,0.4436054986514151
1772455361247325700,10.87832568359375,-0.26167700600922106,0.7436785054851323,0.45507951721549034
1772455361257342500,10.888342529296875,-0.05798983215391636,0.7181735504157841,0.4403696585353464
1772455361267360800,10.89836083984375,0.05917933419942856,0.7164682078026234,0.393973671932891
1772455361277378600,10.908378662109374,0.11557634420394897,0.7598692503727972,0.37281737705972046
1772455361287396600,10.918396728515624,0.14167875370979308,0.7926223499394953,0.3402658279471099
1772455361297414700,10.92841455078125,0.21281389864087102,0.8179788364488632,0.28810353290289636
1772455361307432700,10.9384326171875,0.32593525090813635,0.8500504565574228,0.20875017459960654
1772455361317450500,10.948450439453126,0.5841992336034775,0.8711630949519574,0.14200447853282094
1772455361327468500,10.958468505859376,0.941572409826517,0.8580499308787286,0.10105548702357336
1772455361337486600,10.968486572265626,1.325387018251419,0.799116972655803,0.04335577865634113
1772455361347504600,10.978504638671875,1.7376380320876836,0.8291980765342712,0.08297288224101067
1772455361357521400,10.988521484375,1.839582156780362,0.8744718541737645,0.27270123497918247
1772455361367539700,10.998539794921875,1.830042759540677,0.6839386878587305,0.6552076834149658
1772455361377557500,11.0085576171875,1.6813976739495993,0.5580428288880735,0.6908303470686078
1772455361387575600,11.018575439453125,1.3855208766967058,0.641071094578132,0.525555394520238
1772455361397593600,11.028593505859375,0.8683698109716177,0.7968244047392159,0.38249095860570664
1772455361407611600,11.038611572265625,0.4211176263809204,0.813659804205969,0.23590497923521322
1772455361417629400,11.04862939453125,-0.13605857574045657,0.7429641466706991,0.15515947245378045
1772455361427647500,11.0586474609375,-0.7185480828166008,0.6989886652134358,0.05356603349545039
