time,seconds_elapsed,z,y,x
1772455350440533500,0.071533447265625,-0.1354832649230957,-0.008657404221594334,0.15219485759735107
1772455350450551600,0.081551513671875,-0.1130935326218605,-0.037166010588407516,0.13568006455898285
1772455350460569300,0.0915693359375,-0.1082758754491806,-0.033250629901885986,0.10670966655015945
1772455350470587400,0.10158740234375,-0.117381751537323,-0.03179414942860603,0.07177991420030594
1772455350480605400,0.11160546875,-0.1371392160654068,-0.03171345591545105,0.035039208829402924
1772455350490622500,0.12162255859375,-0.1525575816631317,-0.04673954099416733,0.009718939661979675
1772455350500640500,0.131640625,-0.16493968665599823,-0.04328462481498718,-0.005060805007815361
1772455350510658600,0.141658447265625,-0.17567196488380432,-0.01383751817047596,-0.0017531589837744832
1772455350520676400,0.15167626953125,-0.18315890431404114,0.002972354181110859,-0.0026160231791436672
1772455350530694400,0.1616943359375,-0.17361067235469818,0.006893858779221773,-0.0005872269975952804
1772455350540712400,0.17171240234375,-0.14231586456298828,0.005486644338816404,0.014460965059697628
1772455350550730500,0.18173046875,-0.09721523523330688,0.012428706511855125,0.04674353823065758
1772455350560747300,0.191747314453125,-0.06767731159925461,0.02449602261185646,0.0889410600066185
1772455350570765600,0.201765625,-0.055208127945661545,0.022794527933001518,0.14051397144794464
1772455350580783400,0.211783447265625,-0.05751335993409157,0.014118216000497341,0.18418288230895996
1772455350590801400,0.221801513671875,-0.07232532650232315,0.013193566352128983,0.22874689102172852
1772455350600819500,0.2318193359375,-0.09746237099170685,0.037030722945928574,0.2616867423057556
1772455350610837500,0.24183740234375,-0.12245427817106247,0.07057110220193863,0.2758598029613495
1772455350620855300,0.251855224609375,-0.14798200130462646,0.10056415945291519,0.2598523497581482
1772455350630873300,0.261873291015625,-0.1562255620956421,0.11384907364845276,0.2274896204471588
1772455350640890400,0.271890380859375,-0.13948093354701996,0.11565442383289337,0.17749276757240295
1772455350650908400,0.281908447265625,-0.09422370046377182,0.10422387719154358,0.13029621541500092
1772455350660926500,0.291926513671875,-0.027474766597151756,0.07645908743143082,0.10561776906251907
1772455350670944500,0.301944580078125,0.03791728988289833,0.037638720124959946,0.10642124712467194
1772455350680962300,0.31196240234375,0.07621567696332932,0.01209980621933937,0.1328323483467102
1772455350690980400,0.32198046875,0.08231297880411148,-0.01853640004992485,0.16958796977996826
1772455350700998400,0.331998291015625,0.06290732324123383,-0.03063247725367546,0.20986855030059814
1772455350711015400,0.342015380859375,0.032155539840459824,-0.03446822986006737,0.2317754477262497
1772455350721033200,0.352033203125,-0.00526533555239439,-0.024653946980834007,0.2345999926328659
1772455350731051500,0.362051513671875,-0.024577781558036804,-0.013699300587177277,0.2167498916387558
1772455350741069300,0.3720693359375,-0.017535584047436714,-0.024513065814971924,0.18091624975204468
1772455350751087400,0.38208740234375,0.006141515914350748,-0.047321975231170654,0.1334211677312851
1772455350761105700,0.392105712890625,0.039799343794584274,-0.061223674565553665,0.08115823566913605
1772455350771123500,0.40212353515625,0.07411417365074158,-0.06238774210214615,0.039027560502290726
1772455350781141500,0.4121416015625,0.09532971680164337,-0.047563791275024414,0.01278796698898077
1772455350791158500,0.422158447265625,0.10335754603147507,-0.015251390635967255,0.017106547951698303
1772455350801176300,0.43217626953125,0.08798045665025711,0.04476480931043625,0.046370960772037506
1772455350811194400,0.4421943359375,0.06629034131765366,0.09254777431488037,0.09107132256031036
1772455350821212400,0.45221240234375,0.047753941267728806,0.10153701156377792,0.13296949863433838
1772455350831230500,0.46223046875,0.03702166676521301,0.08031640946865082,0.17321279644966125
1772455350841248500,0.47224853515625,0.032407741993665695,0.05213377624750137,0.20337575674057007
1772455350851266300,0.482266357421875,0.03729597106575966,0.026282204315066338,0.22596682608127594
1772455350861283300,0.492283447265625,0.05710536241531372,0.0255756676197052,0.2451421171426773
1772455350871301400,0.50230126953125,0.0845835953950882,0.027062511071562767,0.26087474822998047
1772455350881319400,0.5123193359375,0.1014198288321495,0.00942199770361185,0.2498612403869629
1772455350891337500,0.52233740234375,0.10549154132604599,-0.0182274729013443,0.22791118919849396
1772455350901355500,0.53235546875,0.08071375638246536,-0.011975436471402645,0.20120368897914886
1772455350911373300,0.542373291015625,0.04881627485156059,0.030353644862771034,0.1648550033569336
1772455350921391400,0.552391357421875,0.01091789547353983,0.07363294064998627,0.13322623074054718
1772455350931409400,0.562409423828125,-0.017367271706461906,0.11981721222400665,0.1080484390258789
1772455350941426400,0.572426513671875,-0.03146791085600853,0.14645442366600037,0.08904784917831421
1772455350951444500,0.582444580078125,-0.028186097741127014,0.1236652135848999,0.08849870413541794
1772455350961462500,0.592462646484375,-0.008170844055712223,0.0719735249876976,0.10080597549676895
1772455350971480300,0.602480224609375,0.02744334191083908,0.03346341848373413,0.13634319603443146
1772455350981498400,0.612498291015625,0.053398244082927704,0.02292156033217907,0.17743630707263947
1772455350991516400,0.622516357421875,0.05458281934261322,0.02389680966734886,0.20305217802524567
1772455351001534500,0.632534423828125,0.028190359473228455,0.02522093430161476,0.2087734490633011
1772455351011552300,0.64255224609375,-0.012061456218361855,0.019400063902139664,0.19085943698883057
1772455351021569500,0.652569580078125,-0.044866275042295456,0.028776787221431732,0.15824715793132782
1772455351031587300,0.66258740234375,-0.061402905732393265,0.05637645721435547,0.11281736195087433
1772455351041605400,0.67260546875,-0.05456604063510895,0.09095067530870438,0.07001929730176926
1772455351051623400,0.68262353515625,-0.018434135243296623,0.13923059403896332,0.03689862787723541
1772455351061641500,0.692641357421875,0.03935645893216133,0.18374159932136536,0.027774905785918236
1772455351071659300,0.7026591796875,0.11978339403867722,0.19468453526496887,0.04842345789074898
1772455351081677300,0.71267724609375,0.20339679718017578,0.19674262404441833,0.09545834362506866
1772455351091695400,0.7226953125,0.2723066210746765,0.2090272456407547,0.1594109684228897
1772455351101712400,0.73271240234375,0.30751439929008484,0.21048186719417572,0.21395596861839294
1772455351111730400,0.74273046875,0.310861200094223,0.185749351978302,0.2506498098373413
1772455351121748500,0.75274853515625,0.28469911217689514,0.1457260400056839,0.26418638229370117
1772455351131766300,0.762766357421875,0.2440720498561859,0.1023884266614914,0.24076387286186218
1772455351141784300,0.772784423828125,0.19994427263736725,0.08462327718734741,0.20392756164073944
1772455351151802400,0.78280224609375,0.15323589742183685,0.07906419038772583,0.15586842596530914
1772455351161820400,0.7928203125,0.11814820766448975,0.07015006244182587,0.09930607676506042
1772455351171837400,0.80283740234375,0.09715104848146439,0.03323198854923248,0.04892573133111
1772455351181855500,0.81285546875,0.0860145092010498,-0.005567338317632675,0.00971707608550787
1772455351191873300,0.822873291015625,0.08537615090608597,-0.036737773567438126,-0.01531477365642786
1772455351201891300,0.832891357421875,0.10333810746669769,-0.07209443300962448,-0.028750954195857048
1772455351211909600,0.84290966796875,0.1377895623445511,-0.109667107462883,-0.024810275062918663
1772455351221927400,0.852927490234375,0.18275463581085205,-0.1172158420085907,0.00902811624109745
1772455351231945500,0.862945556640625,0.21196897327899933,-0.056358348578214645,0.08773970603942871
1772455351241963300,0.87296337890625,0.19108979403972626,-0.13549843430519104,0.13433757424354553
1772455351251980500,0.88298046875,0.14408020675182343,-0.12136317789554596,0.1503644734621048
1772455351261998300,0.892998291015625,0.0959310531616211,-0.014611965976655483,0.1387685388326645
1772455351272016600,0.9030166015625,0.04214026406407356,0.085840605199337,0.10843539983034134
1772455351282034400,0.913034423828125,-0.026332804933190346,0.2755838930606842,0.06243514642119408
1772455351292052500,0.923052490234375,-0.08164319396018982,0.428166002035141,-0.010804444551467896
1772455351302070300,0.9330703125,-0.10070477426052094,0.36836764216423035,-0.10573415458202362
1772455351312088600,0.943088623046875,-0.05982072278857231,0.12107262760400772,-0.21501696109771729
1772455351322106400,0.9531064453125,0.03435610979795456,-0.14116644859313965,-0.3197055757045746
1772455351332123400,0.963123291015625,0.14880865812301636,-0.3361063599586487,-0.3924727141857147
1772455351342141400,0.973141357421875,0.22911760210990906,-0.4426370859146118,-0.44957542419433594
1772455351352159500,0.983159423828125,0.24490483105182648,-0.4530913233757019,-0.4895899295806885
1772455351362177300,0.99317724609375,0.22275051474571228,-0.40589532256126404,-0.515912652015686
1772455351372195600,1.003195556640625,0.1854790449142456,-0.3021899461746216,-0.5074421763420105
1772455351382213400,1.01321337890625,0.14023061096668243,-0.16823694109916687,-0.46066907048225403
1772455351392231400,1.0232314453125,0.08384989202022552,-0.03263277933001518,-0.3755754828453064
1772455351402249500,1.03324951171875,0.0044165863655507565,0.07848948240280151,-0.2757799029350281
1772455351412266500,1.0432666015625,-0.08354070037603378,0.1345982849597931,-0.17981290817260742
1772455351422284300,1.0532841796875,-0.1446743607521057,0.13553385436534882,-0.09772735834121704
1772455351432302600,1.063302490234375,-0.1563912034034729,0.09362422674894333,-0.03483734279870987
1772455351442320400,1.0733203125,-0.12193469703197479,0.0344218909740448,0.004234426189213991
1772455351452338400,1.08333837890625,-0.06549538671970367,-0.025910159572958946,0.01576085388660431
1772455351462356500,1.0933564453125,-0.00430073868483305,-0.07752116024494171,0.01068007480353117
1772455351472374500,1.10337451171875,0.039025429636240005,-0.09428335726261139,0.0000023968450477696024
1772455351482392600,1.113392578125,0.05648724362254143,-0.08903399854898453,-0.011244398541748524
1772455351492409300,1.123409423828125,0.04675818234682083,-0.07190987467765808,-0.013605024665594101
1772455351502427600,1.133427734375,0.023749537765979767,-0.04005660489201546,-0.013532852753996849
1772455351512445400,1.143445556640625,-0.007035539019852877,0.016953416168689728,-0.0016245282022282481
1772455351522463500,1.15346337890625,-0.03579767793416977,0.07997392863035202,0.01341780461370945
1772455351532481500,1.1634814453125,-0.057255033403635025,0.12070111930370331,0.028604479506611824
1772455351542499600,1.17349951171875,-0.05901565030217171,0.13502439856529236,0.04519730433821678
1772455351552517400,1.183517333984375,-0.045164816081523895,0.12221219390630722,0.057738132774829865
1772455351562535400,1.193535400390625,-0.01901683397591114,0.08080562949180603,0.0649169459939003
1772455351572552400,1.203552490234375,0.014220214448869228,0.03286553919315338,0.06665652245283127
1772455351582570500,1.213570556640625,0.04344574362039566,-0.0035241609439253807,0.0670514702796936
1772455351592588500,1.223588623046875,0.05694104731082916,-0.023800937458872795,0.06525517255067825
1772455351602606600,1.233606689453125,0.04785380885004997,-0.023241672664880753,0.0648418441414833
1772455351612624400,1.243624267578125,0.02064429223537445,0.007890679873526096,0.06179678812623024
1772455351622642400,1.253642333984375,-0.006839263718575239,0.03750476613640785,0.054729558527469635
1772455351632660500,1.263660400390625,-0.028867600485682487,0.046789608895778656,0.03990080952644348
1772455351642678500,1.273678466796875,-0.039803605526685715,0.049253832548856735,0.02478044666349888
1772455351652695300,1.2836953125,-0.03916284814476967,0.052270662039518356,0.009790578857064247
1772455351662713600,1.293713623046875,-0.025904567912220955,0.06221756711602211,-0.0031249532476067543
1772455351672731400,1.3037314453125,-0.01398905273526907,0.06282263994216919,-0.015845809131860733
1772455351682749400,1.31374951171875,0.00009560748003423214,0.046421825885772705,-0.02196921408176422
1772455351692767500,1.323767578125,0.013046826235949993,0.01973801851272583,-0.01942509599030018
1772455351702785500,1.33378564453125,0.020661069080233574,-0.012853480875492096,-0.018228804692626
1772455351712803300,1.34380322265625,0.016537697985768318,-0.04402950778603554,-0.015671370550990105
1772455351722820600,1.353820556640625,0.00012357067316770554,-0.05618524178862572,-0.014276407659053802
1772455351732838400,1.36383837890625,-0.022880548611283302,-0.026916302740573883,-0.015086008235812187
1772455351742856400,1.3738564453125,-0.03964328393340111,0.02088184654712677,-0.013907293789088726
1772455351752874500,1.38387451171875,-0.0381322056055069,0.04831453412771225,-0.014170147478580475
1772455351762892500,1.393892578125,-0.034687940031290054,0.05175294354557991,-0.009284844622015953
1772455351772910300,1.403910400390625,-0.023269370198249817,0.0523391030728817,-0.0007898935582488775
1772455351782928400,1.413928466796875,-0.008955411612987518,0.05500386282801628,0.016581639647483826
1772455351792946700,1.42394677734375,0.012288624420762062,0.05745583400130272,0.03931464999914169
1772455351802963500,1.43396337890625,0.028008997440338135,0.03797907382249832,0.07006510347127914
1772455351812981200,1.443981201171875,0.0326724573969841,0.016321981325745583,0.0943712443113327
1772455351822999600,1.45399951171875,0.025648372247815132,0.010085923597216606,0.11494150012731552
1772455351833017300,1.464017333984375,0.004559065215289593,0.022415559738874435,0.11843369901180267
1772455351843035400,1.474035400390625,-0.009897105395793915,0.04163346439599991,0.10778185725212097
1772455351853053700,1.4840537109375,-0.014152570627629757,0.05453621223568916,0.08804117888212204
1772455351863071500,1.494071533203125,-0.004553472623229027,0.051058124750852585,0.058213237673044205
1772455351873089500,1.504089599609375,0.003728159237653017,0.0464327447116375,0.02137186750769615
1772455351883106600,1.5141064453125,0.012597816996276379,0.060615409165620804,-0.004086886998265982
1772455351893124600,1.52412451171875,0.01324043795466423,0.09415339678525925,-0.009329586289823055
1772455351903142400,1.534142333984375,-0.0003962783666793257,0.11647334694862366,0.000660463934764266
1772455351913160400,1.544160400390625,-0.02659565769135952,0.09786531329154968,0.01841922104358673
1772455351923178500,1.554178466796875,-0.050582218915224075,0.032279375940561295,0.027826571837067604
1772455351933196500,1.564196533203125,-0.07066085189580917,-0.06136029586195946,0.02545156329870224
1772455351943214300,1.57421435546875,-0.0748172476887703,-0.1348438411951065,-0.0024197481106966734
1772455351953232600,1.584232666015625,-0.06988534331321716,-0.18601328134536743,-0.05215295031666756
1772455351963249400,1.59424951171875,-0.05463022366166115,-0.17825335264205933,-0.10930971056222916
1772455351973267500,1.604267333984375,-0.04204199090600014,-0.11817191541194916,-0.15575790405273438
1772455351983285500,1.614285400390625,-0.02979171834886074,-0.022232068702578545,-0.18299831449985504
1772455351993303600,1.624303466796875,-0.020675983279943466,0.07433655112981796,-0.17066335678100586
1772455352003321300,1.6343212890625,-0.012592490762472153,0.14302586019039154,-0.11770399659872055
1772455352013339400,1.64433935546875,-0.012084625661373138,0.1771087348461151,-0.03804272413253784
1772455352023357400,1.654357421875,-0.015458318404853344,0.14519260823726654,0.05560307577252388
1772455352033375500,1.66437548828125,-0.020677048712968826,0.08360940963029861,0.14296087622642517
1772455352043392500,1.674392578125,-0.014446050859987736,0.028235366567969322,0.208684504032135
1772455352053410600,1.68441064453125,-0.009319998323917389,0.005635248962789774,0.24907399713993073
1772455352063428400,1.694428466796875,0.002939597237855196,0.025307487696409225,0.25600966811180115
1772455352073446400,1.7044462890625,0.013115269131958485,0.03689463436603546,0.24212048947811127
1772455352083464400,1.71446435546875,0.016622386872768402,0.015255119651556015,0.23178209364414215
1772455352093482500,1.724482421875,-0.0005957491230219603,0.07293306291103363,0.22770187258720398
1772455352103500300,1.734500244140625,-0.016567524522542953,0.15877605974674225,0.23829485476016998
1772455352113518600,1.7445185546875,-0.010243848897516727,0.17495690286159515,0.245222806930542
1772455352123535400,1.754535400390625,0.021252024918794632,0.1575576663017273,0.2520711123943329
1772455352133553400,1.764553466796875,0.06556382775306702,0.12832441926002502,0.2673017382621765
1772455352143571500,1.774571533203125,0.10222969949245453,0.06479151546955109,0.28742271661758423
1772455352153589500,1.784589599609375,0.12301487475633621,0.001725462032482028,0.3092430531978607
1772455352163607300,1.794607177734375,0.12629827857017517,-0.058872904628515244,0.3231213390827179
1772455352173625300,1.804625244140625,0.12496137619018555,-0.11287568509578705,0.32470351457595825
1772455352183643600,1.8146435546875,0.13314580917358398,-0.1481737494468689,0.31603944301605225
1772455352193661400,1.824661376953125,0.1448538601398468,-0.16984495520591736,0.29563990235328674
1772455352203678500,1.834678466796875,0.14019039273262024,-0.1728908121585846,0.26042598485946655
1772455352213696500,1.844696533203125,0.10570299625396729,-0.09859848022460938,0.22886914014816284
1772455352223714300,1.85471435546875,0.04506734386086464,-0.06720779836177826,0.1741188019514084
1772455352233732000,1.864732177734375,-0.010907774791121483,-0.06499923765659332,0.07756216824054718
1772455352243750400,1.87475048828125,-0.04055594652891159,-0.032282836735248566,-0.04019402340054512
1772455352253768200,1.884768310546875,-0.04669187217950821,-0.03241253271698952,-0.15272030234336853
1772455352263786200,1.8947861328125,-0.057077668607234955,-0.005470665637403727,-0.24344168603420258
1772455352273804300,1.90480419921875,-0.07626894116401672,0.03586265817284584,-0.3215221166610718
1772455352283821300,1.9148212890625,-0.08540651202201843,0.1154957041144371,-0.3582524359226227
1772455352293839000,1.924839111328125,-0.08012758940458298,0.24519218504428864,-0.3444303572177887
1772455352303857400,1.934857421875,-0.055752743035554886,0.36709144711494446,-0.28019624948501587
1772455352313875200,1.944875244140625,-0.02809794805943966,0.341231107711792,-0.20829515159130096
1772455352323893200,1.954893310546875,0.005067729391157627,0.13595198094844818,-0.15088139474391937
1772455352333911300,1.964911376953125,0.0418236143887043,-0.08882947266101837,-0.09714013338088989
1772455352343929300,1.974929443359375,0.07740690559148788,-0.22738255560398102,-0.06046547368168831
1772455352353947400,1.984947509765625,0.09192859381437302,-0.3057125210762024,-0.04676644131541252
1772455352363964400,1.99496435546875,0.09167452901601791,-0.3225655257701874,-0.04265877977013588
1772455352373982200,2.004982177734375,0.07484627515077591,-0.22612394392490387,-0.03689170628786087
1772455352384000300,2.015000244140625,0.048537708818912506,-0.06083432212471962,-0.01864585652947426
1772455352394018300,2.025018310546875,0.00301682879216969,0.06643548607826233,-0.003906590864062309
1772455352404036400,2.035036376953125,-0.052196890115737915,0.09341569989919662,0.0005395564367063344
1772455352414054400,2.045054443359375,-0.09121459722518921,0.03380190581083298,-0.0084837656468153
1772455352424072200,2.055072265625,-0.1102660521864891,-0.06350041180849075,-0.029774939641356468
1772455352434090500,2.065090576171875,-0.11499263346195221,-0.15008403360843658,-0.0650612935423851
1772455352444107300,2.075107177734375,-0.11198991537094116,-0.18797843158245087,-0.11399447917938232
1772455352454125300,2.085125244140625,-0.10227550566196442,-0.16828382015228271,-0.17007611691951752
1772455352464143400,2.095143310546875,-0.10042008012533188,-0.1277821958065033,-0.21924233436584473
1772455352474161400,2.105161376953125,-0.09732628613710403,-0.08509732037782669,-0.2478332370519638
1772455352484179200,2.11517919921875,-0.10132582485675812,-0.00418409239500761,-0.2466966062784195
1772455352494197200,2.125197265625,-0.11037897318601608,0.10744443535804749,-0.20294725894927979
1772455352504215300,2.13521533203125,-0.11764726787805557,0.18214397132396698,-0.13920556008815765
1772455352514233300,2.1452333984375,-0.11668454110622406,0.19336360692977905,-0.05924974009394646
1772455352524250400,2.15525048828125,-0.10692671686410904,0.1536548137664795,0.024591362103819847
1772455352534268400,2.165268310546875,-0.08430050313472748,0.11126207560300827,0.11124050617218018
1772455352544286200,2.1752861328125,-0.06277842819690704,0.07918483018875122,0.18337754905223846
1772455352554304300,2.18530419921875,-0.028127241879701614,0.030003439635038376,0.23140765726566315
1772455352564322300,2.195322265625,0.006625944748520851,-0.02846919186413288,0.25117871165275574
1772455352574340400,2.20534033203125,0.020475180819630623,-0.07351389527320862,0.24068690836429596
1772455352584358100,2.215358154296875,0.011420433409512043,-0.08701931685209274,0.20682455599308014
1772455352594376400,2.22537646484375,-0.021812887862324715,-0.06591110676527023,0.15214478969573975
1772455352604393200,2.235393310546875,-0.068862684071064,-0.035417910665273666,0.08290980011224747
1772455352614411300,2.245411376953125,-0.10059452056884766,0.007725031115114689,0.008498679846525192
1772455352624429300,2.25542919921875,-0.12034505605697632,0.03784804791212082,-0.056233178824186325
1772455352634447400,2.265447265625,-0.12997716665267944,0.03199388459324837,-0.10719595849514008
1772455352644465200,2.275465087890625,-0.13344433903694153,0.0035380094777792692,-0.13474103808403015
1772455352654483200,2.285483154296875,-0.14201119542121887,-0.03254729136824608,-0.15165290236473083
1772455352664501200,2.295501220703125,-0.1529482752084732,-0.08830615878105164,-0.16542544960975647
1772455352674519300,2.305519287109375,-0.15552541613578796,-0.11505495011806488,-0.17426714301109314
1772455352684536300,2.315536376953125,-0.14302958548069,-0.09818355739116669,-0.1649753749370575
1772455352694554400,2.325554443359375,-0.12241539359092712,-0.03924247622489929,-0.13408324122428894
1772455352704572200,2.335572265625,-0.10853659361600876,0.05278971046209335,-0.08755381405353546
1772455352714590200,2.345590087890625,-0.09930288791656494,0.14368367195129395,-0.022185996174812317
1772455352724608300,2.355608154296875,-0.09662853926420212,0.21940985321998596,0.05642705783247948
1772455352734626300,2.365626220703125,-0.09319998323917389,0.26563167572021484,0.14115846157073975
1772455352744644400,2.375644287109375,-0.08155611157417297,0.24080541729927063,0.21554240584373474
1772455352754662400,2.385662353515625,-0.05681454762816429,0.17174778878688812,0.2762707471847534
1772455352764679200,2.39567919921875,-0.019300993531942368,0.08510930091142654,0.31552520394325256
1772455352774697200,2.405697265625,0.022068018093705177,0.0012599414912983775,0.3278396427631378
1772455352784715500,2.415715576171875,0.05278944596648216,-0.04795181378722191,0.3077823221683502
1772455352794733300,2.4257333984375,0.07503589242696762,-0.08137128502130508,0.25834500789642334
1772455352804751400,2.43575146484375,0.08804037421941757,-0.09527645260095596,0.18844634294509888
1772455352814769200,2.44576904296875,0.08953840285539627,-0.08796447515487671,0.11718680709600449
1772455352824787500,2.455787353515625,0.07439939677715302,-0.058451324701309204,0.0500786118209362
1772455352834805200,2.46580517578125,0.051952946931123734,-0.029814355075359344,-0.018918031826615334
1772455352844822500,2.475822509765625,0.03429245948791504,-0.005988916382193565,-0.06502613425254822
1772455352854840300,2.48584033203125,0.0202765092253685,0.002799514913931489,-0.08504565060138702
1772455352864858400,2.4958583984375,0.0016855146968737245,0.010514426045119762,-0.08554526418447495
1772455352874876200,2.505876220703125,-0.02292608842253685,0.023260315880179405,-0.07655283063650131
1772455352884894500,2.51589453125,-0.04218100756406784,0.015591209754347801,-0.06039996072649956
1772455352894912300,2.525912353515625,-0.05121605098247528,0.003148122690618038,-0.03699503466486931
1772455352904930300,2.535930419921875,-0.05007408559322357,-0.00430207047611475,-0.012862002477049828
1772455352914948400,2.5459482421875,-0.03809572011232376,-0.02027065120637417,0.013834322802722454
1772455352924965400,2.55596533203125,-0.021495439112186432,-0.047756604850292206,0.03447435423731804
1772455352934983200,2.565983154296875,-0.012435630895197392,-0.06468392163515091,0.05053853988647461
1772455352945001500,2.57600146484375,-0.005569468718022108,-0.06732231378555298,0.06504877656698227
1772455352955019300,2.586019287109375,-0.013290238566696644,-0.04905063286423683,0.06722777336835861
1772455352965037300,2.596037353515625,-0.031013043597340584,-0.019458387047052383,0.05771948769688606
1772455352975055000,2.60605517578125,-0.056300822645425797,0.019991017878055573,0.03626932576298714
1772455352985073400,2.616073486328125,-0.0824434757232666,0.03548475727438927,0.007934888824820518
1772455352995091200,2.62609130859375,-0.09679791331291199,0.02570509724318981,-0.02021206170320511
1772455353005108500,2.6361083984375,-0.09972605854272842,0.008591091260313988,-0.04129497706890106
1772455353015126300,2.646126220703125,-0.09629350900650024,-0.001788312685675919,-0.05197877809405327
1772455353025144300,2.656144287109375,-0.08427999168634415,-0.020070647820830345,-0.06174352392554283
1772455353035162000,2.666162109375,-0.07249017804861069,-0.04163293167948723,-0.06545969843864441
1772455353045180400,2.676180419921875,-0.06968320906162262,-0.030361101031303406,-0.06415874511003494
1772455353055198200,2.6861982421875,-0.06582854688167572,0.003579821204766631,-0.04813344031572342
1772455353065216300,2.69621630859375,-0.0623917393386364,0.055939432233572006,-0.01829857937991619
1772455353075234300,2.706234375,-0.064975805580616,0.10265074670314789,0.022877885028719902
1772455353085251300,2.716251220703125,-0.07000544667243958,0.13201023638248444,0.06838944554328918
1772455353095269000,2.72626904296875,-0.0742364153265953,0.1400788128376007,0.11817137897014618
1772455353105287400,2.736287353515625,-0.07243558764457703,0.12504500150680542,0.1562037169933319
1772455353115305200,2.74630517578125,-0.06069716811180115,0.09067530930042267,0.1775026172399521
1772455353125323300,2.7563232421875,-0.03911970555782318,0.05769951641559601,0.1766330897808075
1772455353135341300,2.76634130859375,-0.009677394293248653,0.03995753452181816,0.15077540278434753
1772455353145359400,2.776359375,0.02484249882400036,0.03699663281440735,0.1136900782585144
1772455353155377400,2.78637744140625,0.0605325847864151,0.036737240850925446,0.07201293855905533
1772455353165394400,2.79639453125,0.09297281503677368,0.034020550549030304,0.03829545900225639
1772455353175412200,2.806412109375,0.11771198362112045,0.035644013434648514,0.014752048067748547
1772455353185430300,2.81643017578125,0.13902951776981354,0.04406013712286949,0.017606956884264946
1772455353195448300,2.8264482421875,0.14271028339862823,0.06274860352277756,0.033490583300590515
1772455353205466400,2.83646630859375,0.12717126309871674,0.08172255754470825,0.06273209303617477
1772455353215484400,2.846484375,0.1042475774884224,0.10530005395412445,0.0954090803861618
1772455353225502200,2.856502197265625,0.08263043314218521,0.12688498198986053,0.12984268367290497
1772455353235520300,2.866520263671875,0.07598291337490082,0.12556883692741394,0.1466221958398819
1772455353245537300,2.876537353515625,0.08606298267841339,0.10620180517435074,0.156776562333107
1772455353255555300,2.886555419921875,0.09280663728713989,0.09451425820589066,0.152627632021904
1772455353265573400,2.896573486328125,0.093068428337574,0.08723396807909012,0.13635757565498352
1772455353275591400,2.90659130859375,0.09474435448646545,0.07506092637777328,0.10452987253665924
1772455353285609200,2.916609130859375,0.09810952097177505,0.06339308619499207,0.05944521725177765
1772455353295627300,2.926627197265625,0.10794857144355774,0.04784635081887245,0.020853616297245026
1772455353305645300,2.936645263671875,0.11939883232116699,0.03771835193037987,-0.02046825736761093
1772455353315663400,2.946663330078125,0.1308743953704834,0.024033963680267334,-0.0580206923186779
1772455353325681400,2.956681396484375,0.13266989588737488,0.016802947968244553,-0.08299688249826431
1772455353335698400,2.966698486328125,0.12453606724739075,0.020497284829616547,-0.09517019242048264
1772455353345716200,2.97671630859375,0.11690717935562134,0.012970127165317535,-0.10932435840368271
1772455353355734300,2.986734375,0.1150144711136818,0.00242187874391675,-0.10787000507116318
1772455353365752300,2.99675244140625,0.12389291822910309,0.02076546661555767,-0.0967411920428276
1772455353375770400,3.006770263671875,0.13603027164936066,0.05402035638689995,-0.07190055400133133
1772455353385788400,3.016788330078125,0.15523353219032288,0.06826427578926086,-0.03111344389617443
1772455353395806200,3.02680615234375,0.17320133745670319,0.08552102744579315,0.014524081721901894
1772455353405824500,3.036824462890625,0.18434587121009827,0.11189883947372437,0.05874107778072357
1772455353415841300,3.04684130859375,0.20082391798496246,0.12839898467063904,0.10241398960351944
1772455353425859300,3.056859375,0.22882571816444397,0.12223989516496658,0.12860484421253204
1772455353435877400,3.06687744140625,0.2617402672767639,0.0752502828836441,0.13914909958839417
1772455353445895400,3.0768955078125,0.29039135575294495,-0.025260616093873978,0.13313701748847961
1772455353455913200,3.086913330078125,0.30443713068962097,-0.1489039957523346,0.1042928472161293
1772455353465931500,3.096931640625,0.2878094017505646,-0.249837264418602,0.06493932008743286
1772455353475949300,3.10694921875,0.23397041857242584,-0.3074379861354828,0.0034679684322327375
1772455353485967400,3.11696728515625,0.15835528075695038,-0.33438676595687866,-0.07329311966896057
1772455353495984400,3.126984375,0.06466048210859299,-0.2874280512332916,-0.17216750979423523
1772455353506002400,3.13700244140625,-0.02082139253616333,-0.18304865062236786,-0.2645552158355713
1772455353516020200,3.147020263671875,-0.07836724072694778,-0.04422418773174286,-0.3454524576663971
1772455353526038500,3.15703857421875,-0.08104505389928818,0.10824551433324814,-0.38713574409484863
1772455353536056300,3.167056396484375,-0.04014715179800987,0.23410756886005402,-0.37610384821891785
1772455353546074400,3.177074462890625,0.036024581640958786,0.33755967020988464,-0.2953983545303345
1772455353556092200,3.187092041015625,0.12186651676893234,0.3812256455421448,-0.16492237150669098
1772455353566110500,3.1971103515625,0.20394620299339294,0.36581286787986755,-0.002737196860834956
1772455353576127200,3.207127197265625,0.2918952405452728,0.29105207324028015,0.17500776052474976
1772455353586145300,3.217145263671875,0.37075382471084595,0.18164490163326263,0.355953574180603
1772455353596163300,3.227163330078125,0.43637919425964355,0.055989231914281845,0.5180551409721375
1772455353606181400,3.237181396484375,0.4666531980037689,-0.06578487157821655,0.6360933780670166
1772455353616199200,3.24719921875,0.4347328245639801,-0.16303126513957977,0.6932075023651123
1772455353626217500,3.257217529296875,0.358308345079422,-0.23641227185726166,0.6795343160629272
1772455353636235300,3.2672353515625,0.24081288278102875,-0.2849433124065399,0.5942385792732239
1772455353646253300,3.27725341796875,0.12945492565631866,-0.3069293200969696,0.44264987111091614
1772455353656270300,3.287270263671875,0.037165477871894836,-0.3005867302417755,0.23929141461849213
1772455353666288400,3.297288330078125,-0.022354841232299805,-0.2758438289165497,0.012295282445847988
1772455353676306200,3.30730615234375,-0.05155294016003609,-0.22325971722602844,-0.20303913950920105
1772455353686324500,3.317324462890625,-0.07437729835510254,-0.1406545788049698,-0.3883384168148041
1772455353696342300,3.32734228515625,-0.10427527129650116,-0.03268098086118698,-0.5311158299446106
1772455353706360300,3.3373603515625,-0.14331269264221191,0.09274458140134811,-0.6035231351852417
1772455353716378400,3.34737841796875,-0.16891765594482422,0.20991142094135284,-0.594974935054779
1772455353726396400,3.357396484375,-0.17439283430576324,0.29782634973526,-0.5101751089096069
1772455353736414500,3.36741455078125,-0.1594831347465515,0.3448452651500702,-0.36904141306877136
1772455353746431200,3.37743115234375,-0.1205676943063736,0.3296591341495514,-0.1981588900089264
1772455353756449300,3.38744921875,-0.06437180191278458,0.26163771748542786,-0.016274044290184975
1772455353766467300,3.39746728515625,-0.010930677875876427,0.16603530943393707,0.15597574412822723
1772455353776485400,3.4074853515625,0.03700675442814827,0.06287616491317749,0.2939184308052063
1772455353786503400,3.41750341796875,0.07881545275449753,-0.012984507717192173,0.39624083042144775
1772455353796521500,3.427521484375,0.1075618788599968,-0.026613235473632812,0.44208499789237976
1772455353806539300,3.437539306640625,0.12033866345882416,-0.01870551146566868,0.4429819583892822
1772455353816557300,3.447557373046875,0.11155928671360016,0.0008338357438333333,0.3963015377521515
1772455353826574300,3.45757421875,0.08742278814315796,0.02046772465109825,0.3116239309310913
1772455353836592400,3.46759228515625,0.06208840385079384,0.03822355344891548,0.20144709944725037
1772455353846610400,3.4776103515625,0.030458839610219002,0.04783729836344719,0.07644949853420258
1772455353856628500,3.48762841796875,0.008655806072056293,0.03659369796514511,-0.04620850831270218
1772455353866646300,3.497646240234375,-0.006366819143295288,0.021685320883989334,-0.14783446490764618
1772455353876664300,3.507664306640625,-0.024033164605498314,0.014163223095238209,-0.22162507474422455
1772455353886682400,3.517682373046875,-0.053879741579294205,0.012631372548639774,-0.2626670300960541
1772455353896700400,3.527700439453125,-0.09508949518203735,0.009196694009006023,-0.2862120568752289
1772455353906717200,3.53771728515625,-0.13015639781951904,-0.0007685882737860084,-0.28519684076309204
1772455353916735500,3.547735595703125,-0.1454908847808838,-0.0030178942251950502,-0.2612694203853607
1772455353926753300,3.557753173828125,-0.13779062032699585,0.018922291696071625,-0.2226056456565857
1772455353936771300,3.567771240234375,-0.11187326908111572,0.04869163781404495,-0.16007648408412933
1772455353946789400,3.577789306640625,-0.08251804858446121,0.07457862794399261,-0.08502967655658722
1772455353956807400,3.587807373046875,-0.060452159494161606,0.09737369418144226,-0.011832424439489841
1772455353966825200,3.5978251953125,-0.04785007983446121,0.11005273461341858,0.05389945209026337
1772455353976843300,3.60784326171875,-0.03291533887386322,0.10136231034994125,0.09993964433670044
1772455353986861300,3.617861328125,-0.01877741515636444,0.07178764045238495,0.12464019656181335
1772455353996878300,3.62787841796875,-0.005244030617177486,0.025787655264139175,0.13099317252635956
1772455354006896400,3.637896484375,0.00980629213154316,-0.03892076760530472,0.10810676217079163
1772455354016914400,3.64791455078125,0.01854119449853897,-0.10459724813699722,0.06754548847675323
1772455354026932200,3.65793212890625,0.018967831507325172,-0.14018186926841736,0.0035888757556676865
1772455354036950300,3.6679501953125,0.0175787266343832,-0.14198856055736542,-0.06633880734443665
1772455354046968300,3.67796826171875,0.009966347366571426,-0.12176025658845901,-0.1389664113521576
1772455354056986400,3.687986328125,0.010064618661999702,-0.09120234847068787,-0.1982012391090393
1772455354067004400,3.69800439453125,0.00544430036097765,-0.06834949553012848,-0.23271526396274567
1772455354077021400,3.708021484375,0.0015880429418757558,-0.06290146708488464,-0.23958969116210938
1772455354087039200,3.718039306640625,-0.00458596320822835,-0.07984236627817154,-0.22738388180732727
1772455354097057300,3.728057373046875,-0.010253170505166054,-0.10633336007595062,-0.19935917854309082
1772455354107075300,3.738075439453125,-0.018698053434491158,-0.14492283761501312,-0.1665295958518982
1772455354117093400,3.74809326171875,-0.022763635963201523,-0.17336513102054596,-0.13064882159233093
1772455354127111400,3.758111328125,-0.024086426943540573,-0.17604506015777588,-0.09082657843828201
1772455354137129200,3.768129150390625,-0.03068068064749241,-0.16379745304584503,-0.06562987715005875
1772455354147147500,3.7781474609375,-0.045293178409338,-0.14650794863700867,-0.05487150326371193
1772455354157164300,3.788164306640625,-0.06238614767789841,-0.13022831082344055,-0.05728060007095337
1772455354167182300,3.798182373046875,-0.07966793328523636,-0.11045673489570618,-0.06832872331142426
1772455354177200400,3.808200439453125,-0.09293313324451447,-0.0854019820690155,-0.07884448021650314
1772455354187218400,3.818218505859375,-0.10513307899236679,-0.050205379724502563,-0.08722145110368729
1772455354197236200,3.828236328125,-0.10721060633659363,-0.03015550598502159,-0.08896156400442123
1772455354207254500,3.838254638671875,-0.10205712914466858,-0.025468608364462852,-0.07112371176481247
1772455354217272300,3.848272216796875,-0.0990980863571167,-0.018066085875034332,-0.03550100326538086
1772455354227289600,3.85828955078125,-0.10051542520523071,-0.029751503840088844,0.009148756973445415
1772455354237308000,3.868307861328125,-0.10985379666090012,-0.060977865010499954,0.05506325140595436
1772455354247324700,3.87832470703125,-0.11922279745340347,-0.08433059602975845,0.09334352612495422
1772455354257342500,3.888342529296875,-0.13322356343269348,-0.08859910815954208,0.13067492842674255
1772455354267360800,3.89836083984375,-0.1464858502149582,-0.0922822579741478,0.14172624051570892
1772455354277378600,3.908378662109375,-0.15664047002792358,-0.08935624361038208,0.14013659954071045
1772455354287396600,3.918396728515625,-0.16309517621994019,-0.08222456276416779,0.11848749965429306
1772455354297414700,3.92841455078125,-0.17126043140888214,-0.08513619750738144,0.09034667164087296
1772455354307432700,3.9384326171875,-0.18218524754047394,-0.10073326528072357,0.05128582566976547
1772455354317450800,3.94845068359375,-0.20280131697654724,-0.1083160862326622,0.004161987919360399
1772455354327467800,3.9584677734375,-0.2259415239095688,-0.11775033175945282,-0.043051328510046005
1772455354337485600,3.968485595703125,-0.2593628466129303,-0.1191042885184288,-0.09975242614746094
1772455354347503600,3.978503662109375,-0.2948148548603058,-0.115698903799057,-0.15070588886737823
1772455354357521700,3.988521728515625,-0.33128419518470764,-0.10371441394090652,-0.1908341348171234
1772455354367539700,3.998539794921875,-0.3625582158565521,-0.09564423561096191,-0.22375799715518951
1772455354377557800,4.008557861328125,-0.3825657367706299,-0.09285696595907211,-0.23964934051036835
1772455354387575600,4.018575439453125,-0.3902636170387268,-0.09786371141672134,-0.24065761268138885
1772455354397593900,4.02859375,-0.38160303235054016,-0.1009196862578392,-0.2230386734008789
1772455354407611600,4.038611572265625,-0.361746221780777,-0.09203644841909409,-0.1937447041273117
1772455354417628700,4.048628662109375,-0.3246246874332428,-0.05293751507997513,-0.14519420266151428
1772455354427646700,4.058646728515625,-0.28769516944885254,0.023691747337579727,-0.08472367376089096
1772455354437664800,4.068664794921875,-0.2471402883529663,0.09532944858074188,-0.020314326509833336
1772455354447682600,4.0786826171875,-0.20211954414844513,0.14838095009326935,0.056290969252586365
1772455354457700600,4.08870068359375,-0.14722779393196106,0.1850380301475525,0.1464402973651886
1772455354467718700,4.09871875,-0.0917285904288292,0.20181967318058014,0.23407374322414398
1772455354477736700,4.10873681640625,-0.0473502054810524,0.19377532601356506,0.3201356530189514
1772455354487754500,4.11875439453125,-0.015236211009323597,0.18868575990200043,0.4026965796947479
1772455354497771800,4.128771728515625,0.0063005066476762295,0.19292578101158142,0.477444052696228
1772455354507789600,4.13878955078125,0.011421765200793743,0.2151370793581009,0.5427178740501404
1772455354517807600,4.1488076171875,0.013027118518948555,0.2416943907737732,0.5773296356201172
1772455354527825700,4.15882568359375,0.01221458800137043,0.2475711852312088,0.581753671169281
1772455354537843700,4.16884375,0.010088054463267326,0.24920183420181274,0.5717242360115051
1772455354547861500,4.178861572265625,0.0135067543014884,0.2435508668422699,0.5356181263923645
1772455354557879800,4.1888798828125,0.00845766719430685,0.21672111749649048,0.4897792935371399
1772455354567897600,4.198897705078125,-0.0007568703731521964,0.164956733584404,0.41340434551239014
1772455354577914600,4.20891455078125,-0.016814665868878365,0.0829705148935318,0.3127294182777405
1772455354587932700,4.2189326171875,-0.036740172654390335,-0.020472250878810883,0.18219536542892456
1772455354597950700,4.22895068359375,-0.05627259239554405,-0.11444295197725296,0.03308471664786339
1772455354607968500,4.238968505859375,-0.06707890331745148,-0.1760791540145874,-0.11369168013334274
1772455354617986600,4.248986572265625,-0.0768662840127945,-0.18292081356048584,-0.2577314078807831
1772455354628004600,4.259004638671875,-0.0809427872300148,-0.15396453440189362,-0.382139652967453
1772455354638022700,4.269022705078125,-0.0842733383178711,-0.11510422080755234,-0.4767172932624817
1772455354648040700,4.279040771484375,-0.08776100724935532,-0.05847396329045296,-0.5236490964889526
1772455354658058800,4.289058837890625,-0.07631634175777435,-0.0012460930738598108,-0.512781023979187
1772455354668075500,4.299075439453125,-0.05716421827673912,0.066583551466465,-0.4410295784473419
1772455354678093600,4.309093505859375,-0.020742828026413918,0.12856782972812653,-0.31530097126960754
1772455354688111900,4.31911181640625,0.03289776295423508,0.1819695383310318,-0.1488288938999176
1772455354698129700,4.329129638671875,0.09277042001485825,0.22476068139076233,0.04218127578496933
1772455354708147700,4.339147705078125,0.15231336653232574,0.2539699673652649,0.22875460982322693
1772455354718165800,4.349165771484375,0.20955109596252441,0.2419428527355194,0.38889262080192566
1772455354728183800,4.359183837890625,0.25530606508255005,0.20077916979789734,0.5165408849716187
1772455354738201600,4.36920166015625,0.28169214725494385,0.1696375012397766,0.6075628995895386
1772455354748219000,4.379218994140625,0.28984567523002625,0.13626889884471893,0.6476203203201294
1772455354758236700,4.389236572265625,0.2800692021846771,0.09601201862096786,0.6394726634025574
1772455354768254700,4.399254638671875,0.2483948916196823,0.05399612337350845,0.5818016529083252
1772455354778272500,4.4092724609375,0.2067108303308487,0.014941931702196598,0.48084598779678345
1772455354788290800,4.419290771484375,0.1577262431383133,-0.006521814968436956,0.34575819969177246
1772455354798308600,4.42930859375,0.11380645632743835,-0.01738511584699154,0.1939750611782074
1772455354808326700,4.43932666015625,0.0798729956150055,-0.02756238542497158,0.035111647099256516
1772455354818344700,4.4493447265625,0.04382497817277908,-0.03259069845080376,-0.11421498656272888
1772455354828362800,4.45936279296875,-0.0013920343481004238,-0.023298664018511772,-0.24379481375217438
1772455354838379500,4.469379638671875,-0.045453500002622604,-0.013652695342898369,-0.3353455066680908
1772455354848397800,4.479397705078125,-0.095684714615345,-0.004340153653174639,-0.39850956201553345
1772455354858415600,4.48941552734375,-0.1319551020860672,-0.0014879080699756742,-0.4271300137042999
1772455354868433700,4.49943359375,-0.14577557146549225,0.0049095372669398785,-0.42993566393852234
1772455354878451700,4.50945166015625,-0.13873843848705292,0.031677234917879105,-0.3963572084903717
1772455354888469800,4.5194697265625,-0.1088697612285614,0.08127222210168839,-0.32642364501953125
1772455354898487600,4.529487548828125,-0.06118665635585785,0.12288384139537811,-0.23119300603866577
1772455354908505600,4.539505615234375,-0.016834907233715057,0.16645555198192596,-0.12119113653898239
1772455354918524000,4.54952392578125,0.019417107105255127,0.21852754056453705,0.0024112260434776545
1772455354928540700,4.559540771484375,0.04352084547281265,0.27251487970352173,0.11891254037618637
1772455354938558500,4.569558349609375,0.05282992497086525,0.2977270185947418,0.2173621505498886
1772455354948576800,4.57957666015625,0.06022791936993599,0.27638232707977295,0.2863582670688629
1772455354958594600,4.589594482421875,0.07444893568754196,0.2207944244146347,0.3236273229122162
1772455354968612600,4.599612548828125,0.07730357348918915,0.14792262017726898,0.3137270212173462
1772455354978630700,4.609630615234375,0.0748920813202858,0.05817755311727524,0.25642088055610657
1772455354988648700,4.619648681640625,0.08137022703886032,-0.031503066420555115,0.1567552536725998
1772455354998666800,4.629666748046875,0.10668330639600754,-0.09670683741569519,0.029979204759001732
1772455355008683800,4.639683837890625,0.1426415741443634,-0.1037098839879036,-0.10108054429292679
1772455355018701600,4.64970166015625,0.17564666271209717,-0.05222592130303383,-0.21325981616973877
1772455355028719600,4.6597197265625,0.18439114093780518,0.015030348673462868,-0.29563432931900024
1772455355038737700,4.669737548828125,0.15879417955875397,0.08108313381671906,-0.3345628082752228
1772455355048755700,4.679755615234375,0.11886380612850189,0.14951013028621674,-0.3165622353553772
1772455355058773800,4.689773681640625,0.08147887885570526,0.20890207588672638,-0.24376578629016876
1772455355068791600,4.69979150390625,0.0645022913813591,0.2570299208164215,-0.1292400062084198
1772455355078809900,4.709809814453125,0.06791327148675919,0.2695329487323761,0.007534082513302565
1772455355088826600,4.71982666015625,0.08699268847703934,0.21905085444450378,0.13218599557876587
1772455355098844700,4.7298447265625,0.11301843076944351,0.10236711800098419,0.22130095958709717
1772455355108862700,4.73986279296875,0.14224529266357422,-0.053102631121873856,0.2643911838531494
1772455355118880800,4.749880859375,0.17217496037483215,-0.17548207938671112,0.25690263509750366
1772455355128898600,4.759898681640625,0.17944006621837616,-0.21711499989032745,0.20409880578517914
1772455355138916600,4.76991650390625,0.1523386687040329,-0.20435713231563568,0.10444491356611252
1772455355148934700,4.7799345703125,0.07893157005310059,-0.17793378233909607,-0.03560113534331322
1772455355158952700,4.78995263671875,-0.020617926493287086,-0.1528681069612503,-0.17400695383548737
1772455355168970500,4.799970458984375,-0.10218948125839233,-0.1171436682343483,-0.2955128848552704
1772455355178987800,4.80998779296875,-0.15303055942058563,-0.05251540616154671,-0.38231727480888367
1772455355189005600,4.820005615234375,-0.16590161621570587,0.03221093490719795,-0.42665597796440125
1772455355199023600,4.830023681640625,-0.15163080394268036,0.09877664595842361,-0.43520498275756836
1772455355209041700,4.840041748046875,-0.12047980725765228,0.1674308031797409,-0.39124125242233276
1772455355219059700,4.850059814453125,-0.0672735795378685,0.22620730102062225,-0.2945687770843506
1772455355229078500,4.86007861328125,0.015794409438967705,0.27172738313674927,-0.14664749801158905
1772455355239096300,4.870096435546875,0.13006532192230225,0.301779568195343,0.04755473509430885
1772455355249114600,4.880114501953125,0.25278404355049133,0.324535995721817,0.2665978670120239
1772455355259132400,4.89013232421875,0.3534693717956543,0.30803051590919495,0.4868828356266022
1772455355269149200,4.900149169921875,0.42453157901763916,0.25687360763549805,0.6907232999801636
1772455355279167500,4.91016748046875,0.4576343894004822,0.2021413892507553,0.8629574179649353
1772455355289185500,4.920185546875,0.46583613753318787,0.16730377078056335,0.9694846272468567
1772455355299203300,4.930203369140625,0.446775883436203,0.16499827802181244,1.011765480041504
1772455355309221600,4.9402216796875,0.42628660798072815,0.16085386276245117,0.9763665199279785
1772455355319239400,4.950239501953125,0.39721447229385376,0.10975313186645508,0.8713263869285583
1772455355329257500,4.960257568359375,0.3863394558429718,0.009859289042651653,0.7170606255531311
1772455355339275300,4.970275146484375,0.3757307529449463,-0.0867689847946167,0.5311445593833923
1772455355349292500,4.98029248046875,0.36833807826042175,-0.17744456231594086,0.31976041197776794
1772455355359310300,4.990310302734375,0.3672962486743927,-0.2730794847011566,0.10854298621416092
1772455355369328400,5.000328369140625,0.3764817714691162,-0.35890674591064453,-0.09084095805883408
1772455355379346400,5.010346435546875,0.38057848811149597,-0.4086996018886566,-0.2544352114200592
1772455355389364500,5.020364501953125,0.35289573669433594,-0.4140552282333374,-0.38421157002449036
1772455355399382300,5.03038232421875,0.28685200214385986,-0.40933531522750854,-0.47734710574150085
1772455355409400600,5.040400634765625,0.171569362282753,-0.4139561653137207,-0.530792236328125
1772455355419418400,5.05041845703125,0.020395552739501,-0.42100369930267334,-0.5636085271835327
1772455355429436400,5.0604365234375,-0.1265648603439331,-0.42811405658721924,-0.5684916973114014
1772455355439453400,5.070453369140625,-0.2467637062072754,-0.39553001523017883,-0.5534858107566833
1772455355449471500,5.080471435546875,-0.3355998396873474,-0.3223609924316406,-0.5259612798690796
1772455355459489300,5.0904892578125,-0.39691299200057983,-0.20594491064548492,-0.49898770451545715
1772455355469507300,5.10050732421875,-0.41972535848617554,-0.04291817173361778,-0.45805278420448303
1772455355479525400,5.110525390625,-0.4001271724700928,0.12374085187911987,-0.4064747989177704
1772455355489543400,5.12054345703125,-0.3329201638698578,0.2525869905948639,-0.33230310678482056
1772455355499561200,5.130561279296875,-0.23112882673740387,0.3217543363571167,-0.22242987155914307
1772455355509579500,5.14057958984375,-0.12008166313171387,0.3267291188240051,-0.088764488697052
1772455355519596300,5.15059619140625,-0.02900848165154457,0.2872046232223511,0.057846520096063614
1772455355529614300,5.1606142578125,0.021517543122172356,0.24171355366706848,0.20112910866737366
1772455355539632400,5.17063232421875,0.03189241886138916,0.1718069165945053,0.3174456059932709
1772455355549650400,5.180650390625,0.003468500915914774,0.07847563177347183,0.3850001394748688
1772455355559668200,5.190668212890625,-0.03646959364414215,0.011710185557603836,0.3928612768650055
1772455355569686500,5.2006865234375,-0.07018174976110458,-0.022400114685297012,0.35273516178131104
1772455355579704600,5.21070458984375,-0.08223894983530045,-0.03286660462617874,0.271295428276062
1772455355589722400,5.220722412109375,-0.07924634963274002,-0.01792334020137787,0.14851410686969757
1772455355599740400,5.230740478515625,-0.06253767758607864,-0.009700031951069832,0.009185775183141232
1772455355609757400,5.24075732421875,-0.05108022689819336,-0.0006681871018372476,-0.12427907437086105
1772455355619775500,5.250775390625,-0.0452074259519577,-0.009859022684395313,-0.24226616322994232
1772455355629793300,5.260793212890625,-0.03753485903143883,-0.04784794896841049,-0.31553903222084045
1772455355639811600,5.2708115234375,-0.04247076064348221,-0.10019397735595703,-0.3497113883495331
1772455355649829400,5.280829345703125,-0.06047745794057846,-0.16168290376663208,-0.34089207649230957
1772455355659847400,5.290847412109375,-0.0869322344660759,-0.19653862714767456,-0.3057157099246979
1772455355669865500,5.300865478515625,-0.1328137069940567,-0.17758651077747345,-0.25687146186828613
1772455355679883500,5.310883544921875,-0.17728610336780548,-0.13993260264396667,-0.1964041292667389
1772455355689901300,5.3209013671875,-0.21605026721954346,-0.10022486746311188,-0.14711648225784302
1772455355699918600,5.330918701171875,-0.23850418627262115,-0.06034136936068535,-0.1057586520910263
1772455355709936400,5.340936279296875,-0.2468302845954895,-0.049075666815042496,-0.086849145591259
1772455355719954400,5.350954345703125,-0.23583170771598816,-0.07890760153532028,-0.07936380058526993
1772455355729972500,5.360972412109375,-0.222730815410614,-0.13212580978870392,-0.08327784389257431
1772455355739990500,5.370990478515625,-0.20390519499778748,-0.1721283495426178,-0.10414637625217438
1772455355750008300,5.38100830078125,-0.19192390143871307,-0.19228209555149078,-0.12467855215072632
1772455355760026400,5.3910263671875,-0.18475307524204254,-0.1698140650987625,-0.1466461718082428
1772455355770044400,5.40104443359375,-0.19274121522903442,-0.12680667638778687,-0.16189835965633392
1772455355780062500,5.4110625,-0.20188145339488983,-0.10459858179092407,-0.16408880054950714
1772455355790079200,5.421079345703125,-0.21066643297672272,-0.10569021105766296,-0.15796487033367157
1772455355800097500,5.43109765625,-0.21112875640392303,-0.11983159184455872,-0.1226380318403244
1772455355810115300,5.441115234375,-0.19971124827861786,-0.12016315758228302,-0.06949518620967865
1772455355820133400,5.45113330078125,-0.1852385699748993,-0.10235539823770523,-0.0022535668686032295
1772455355830151400,5.4611513671875,-0.16887131333351135,-0.08203068375587463,0.06862486898899078
1772455355840169500,5.47116943359375,-0.14995461702346802,-0.056943442672491074,0.14266420900821686
1772455355850187300,5.481187255859375,-0.13012923300266266,-0.029317142441868782,0.20715318620204926
1772455355860205300,5.491205322265625,-0.12446203082799911,-0.05932670831680298,0.25387248396873474
1772455355870222300,5.501222412109375,-0.14357180893421173,-0.1637449860572815,0.26022252440452576
1772455355880240400,5.511240478515625,-0.1814528852701187,-0.28082475066185,0.22490714490413666
1772455355890258400,5.521258544921875,-0.23590654134750366,-0.33282801508903503,0.1419946849346161
1772455355900276500,5.5312763671875,-0.2881662845611572,-0.2993025481700897,0.02689606323838234
1772455355910294500,5.54129443359375,-0.3396340012550354,-0.22086286544799805,-0.10658449679613113
1772455355920312300,5.551312255859375,-0.3798557221889496,-0.1524345427751541,-0.23744770884513855
1772455355930330600,5.56133056640625,-0.4073166251182556,-0.10142195969820023,-0.3361668288707733
1772455355940348400,5.571348388671875,-0.42127665877342224,-0.06595824658870697,-0.39323145151138306
1772455355950366500,5.581366455078125,-0.41814425587654114,-0.03188416361808777,-0.4122421443462372
1772455355960383500,5.591383544921875,-0.4028899371623993,0.01583382487297058,-0.3764367401599884
1772455355970401500,5.601401611328125,-0.3796040415763855,0.09534303098917007,-0.2832740545272827
1772455355980419300,5.61141943359375,-0.3537655174732208,0.17896123230457306,-0.15506654977798462
1772455355990437600,5.621437744140625,-0.323822021484375,0.2591750919818878,0.004013916477560997
1772455356000455400,5.631455322265625,-0.28952983021736145,0.30146345496177673,0.16757728159427643
1772455356010473500,5.641473388671875,-0.2514846920967102,0.31171715259552,0.3205934464931488
1772455356020491300,5.6514912109375,-0.22084955871105194,0.2986311614513397,0.4350702464580536
1772455356030509600,5.661509521484375,-0.18572139739990234,0.2690508961677551,0.5131005644798279
1772455356040527400,5.67152734375,-0.1596362590789795,0.21953395009040833,0.534525454044342
1772455356050544400,5.68154443359375,-0.1327923983335495,0.14997164905071259,0.5094733834266663
1772455356060562400,5.6915625,-0.11658094078302383,0.07563723623752594,0.4344973862171173
1772455356070580500,5.70158056640625,-0.09783335030078888,0.0023912524338811636,0.3354179561138153
1772455356080598300,5.711598388671875,-0.08443046361207962,-0.04939897358417511,0.22447092831134796
1772455356090616600,5.721616455078125,-0.0874350368976593,-0.047088414430618286,0.11966807395219803
1772455356100634400,5.73163427734375,-0.11652794480323792,0.010687798261642456,0.035354528576135635
1772455356110652400,5.74165234375,-0.16314497590065002,0.0924748033285141,-0.034507643431425095
1772455356120670200,5.751670166015625,-0.22505681216716766,0.1661628782749176,-0.07276368886232376
1772455356130687500,5.7616875,-0.2829667329788208,0.20811139047145844,-0.0878283903002739
1772455356140705300,5.771705322265625,-0.3185316324234009,0.2012079507112503,-0.08612743020057678
1772455356150723600,5.7817236328125,-0.3201353847980499,0.1372193694114685,-0.07862237095832825
1772455356160741400,5.791741455078125,-0.2845771312713623,0.040231041610240936,-0.07256820797920227
1772455356170759400,5.801759521484375,-0.21512243151664734,-0.06317444145679474,-0.07040013372898102
1772455356180777200,5.811777099609375,-0.13052286207675934,-0.11951307952404022,-0.0735439881682396
1772455356190795500,5.82179541015625,-0.052315935492515564,-0.12175173312425613,-0.08475030958652496
1772455356200813600,5.8318134765625,-0.00008096009696600959,-0.07098069787025452,-0.08934292942285538
1772455356210831400,5.841831298828125,0.033189110457897186,0.013495569117367268,-0.0789257064461708
1772455356220848400,5.851848388671875,0.05365443974733353,0.09237227588891983,-0.04803410544991493
1772455356230866000,5.861865966796875,0.0599200576543808,0.15663062036037445,0.007925567217171192
1772455356240883700,5.8718837890625,0.06865283101797104,0.19420595467090607,0.08063332736492157
1772455356250902000,5.881902099609375,0.08216943591833115,0.18480420112609863,0.15795500576496124
1772455356260919800,5.891919921875,0.11288899928331375,0.14107190072536469,0.2275191694498062
1772455356270937900,5.901937744140625,0.14710450172424316,0.09233152866363525,0.27895814180374146
1772455356280956000,5.911955810546875,0.184831902384758,0.044672396034002304,0.3137560486793518
1772455356290974000,5.921973876953125,0.20513051748275757,-0.0052235242910683155,0.3123496472835541
1772455356300992000,5.931991943359375,0.20173285901546478,-0.061411160975694656,0.27892830967903137
1772455356311009000,5.942009033203125,0.17442587018013,-0.09602613002061844,0.20519602298736572
1772455356321026800,5.95202685546875,0.1285068392753601,-0.10365208983421326,0.11447864025831223
1772455356331043800,5.9620439453125,0.07075300067663193,-0.08675220608711243,-0.0003150519623886794
1772455356341062000,5.972061767578125,0.018012555316090584,-0.061284128576517105,-0.11543551832437515
1772455356351080000,5.982079833984375,-0.024457406252622604,-0.021502628922462463,-0.20699472725391388
1772455356361097700,5.99209765625,-0.0500652976334095,0.011205783113837242,-0.2707848846912384
1772455356371116000,6.002115966796875,-0.06948080658912659,0.03310362622141838,-0.30298012495040894
1772455356381134000,6.012134033203125,-0.08551223576068878,0.042075015604496,-0.30755648016929626
1772455356391151900,6.02215185546875,-0.08784090727567673,0.029788788408041,-0.2863132655620575
1772455356401170000,6.032169921875,-0.082178495824337,0.013515542261302471,-0.24861115217208862
1772455356411188000,6.04218798828125,-0.060688115656375885,-0.005041630007326603,-0.20184044539928436
1772455356421204700,6.052204833984375,-0.036067456007003784,-0.01477654930204153,-0.16042642295360565
1772455356431223000,6.06222314453125,-0.0019347865600138903,0.005583050660789013,-0.1278325319290161
1772455356441241000,6.072240966796875,0.026991937309503555,0.040042489767074585,-0.09866932034492493
1772455356451259000,6.0822587890625,0.04754940792918205,0.08259234577417374,-0.0796373039484024
1772455356461277000,6.09227685546875,0.05266587436199188,0.11030040681362152,-0.07709292322397232
1772455356471295000,6.102294921875,0.05239636078476906,0.10934353619813919,-0.08201470971107483
1772455356481313000,6.11231298828125,0.05384352430701256,0.10084459185600281,-0.08785182237625122
1772455356491330800,6.122330810546875,0.0651470422744751,0.08178593963384628,-0.09941420704126358
1772455356501348900,6.132348876953125,0.09154216945171356,0.04272456094622612,-0.11699559539556503
1772455356511366000,6.142365966796875,0.1289244294166565,-0.0032226911280304193,-0.1308584213256836
1772455356521384000,6.152384033203125,0.16231301426887512,-0.03777800500392914,-0.1437758058309555
1772455356531402000,6.162402099609375,0.18760079145431519,-0.04592487961053848,-0.15515336394309998
1772455356541420000,6.172419921875,0.20006971061229706,-0.02509043924510479,-0.1627630889415741
1772455356551437800,6.182437744140625,0.19385576248168945,0.025540780276060104,-0.16499854624271393
1772455356561455900,6.192455810546875,0.17909970879554749,0.0831175222992897,-0.151750385761261
1772455356571474000,6.202473876953125,0.16708779335021973,0.13711737096309662,-0.11820972710847855
1772455356581492000,6.212491943359375,0.1626746654510498,0.17657610774040222,-0.06300906091928482
1772455356591509800,6.222509765625,0.17360827326774597,0.17889784276485443,0.009287774562835693
1772455356601527000,6.232527099609375,0.19699828326702118,0.16840286552906036,0.08749149739742279
1772455356611544800,6.242544921875,0.22413350641727448,0.16948489844799042,0.16343019902706146
1772455356621563000,6.25256298828125,0.2469450682401657,0.1760309487581253,0.22309806942939758
1772455356631581000,6.262580810546875,0.2663046419620514,0.17054590582847595,0.2566818594932556
1772455356641599000,6.272598876953125,0.27881431579589844,0.10312638431787491,0.25330203771591187
1772455356651616800,6.28261669921875,0.2957315146923065,-0.04338662326335907,0.20860061049461365
1772455356661634800,6.292634765625,0.3198224604129791,-0.17176084220409393,0.1461750566959381
1772455356671653000,6.302653076171875,0.32902583479881287,-0.206705242395401,0.0699244886636734
1772455356681671000,6.3126708984375,0.29744312167167664,-0.18403907120227814,-0.01798192970454693
1772455356691689000,6.32268896484375,0.22784169018268585,-0.1626933068037033,-0.12395017594099045
1772455356701707000,6.33270703125,0.1290099173784256,-0.13196708261966705,-0.2313898205757141
1772455356711723800,6.342723876953125,0.03572896867990494,-0.08291831612586975,-0.32702338695526123
1772455356721741800,6.352741943359375,-0.03620913624763489,0.0014207963831722736,-0.39128121733665466
1772455356731760000,6.362760009765625,-0.07783593982458115,0.09627939760684967,-0.4176347851753235
1772455356741778000,6.37277783203125,-0.09124815464019775,0.19181577861309052,-0.4001580476760864
1772455356751796000,6.3827958984375,-0.0699753537774086,0.28368017077445984,-0.32937708497047424
1772455356761813800,6.392813720703125,-0.008731439709663391,0.3745235502719879,-0.20505142211914062
1772455356771832000,6.40283203125,0.10645666718482971,0.44039228558540344,-0.02588059939444065
1772455356781849900,6.412849853515625,0.2595330476760864,0.4748067259788513,0.18633605539798737
1772455356791868000,6.422867919921875,0.42958810925483704,0.4847051799297333,0.41473913192749023
1772455356801885000,6.432885009765625,0.5839062929153442,0.47558462619781494,0.6448969841003418
1772455356811903000,6.442903076171875,0.7135607004165649,0.4554612636566162,0.863654613494873
1772455356821920800,6.452920654296875,0.7884219288825989,0.4235187768936157,1.0493205785751343
1772455356831939000,6.46293896484375,0.8161987066268921,0.3648008704185486,1.186136245727539
1772455356841956900,6.472956787109375,0.7838311791419983,0.2773594260215759,1.2489879131317139
1772455356851975000,6.482974853515625,0.6971716284751892,0.14513562619686127,1.21842622756958
1772455356861993000,6.492992919921875,0.5795576572418213,-0.0446564182639122,1.0868825912475586
1772455356872011000,6.503010986328125,0.45777130126953125,-0.2520737946033478,0.8747312426567078
1772455356882027800,6.51302783203125,0.3659721314907074,-0.44250205159187317,0.5943067669868469
1772455356892046000,6.523046142578125,0.31755319237709045,-0.5766475796699524,0.24686837196350098
1772455356902063900,6.53306396484375,0.30906277894973755,-0.6300376057624817,-0.12147050350904465
1772455356912082000,6.54308203125,0.31439468264579773,-0.5933839678764343,-0.4680766463279724
1772455356922099700,6.553099609375,0.2841467559337616,-0.5082411170005798,-0.763695240020752
1772455356932118000,6.563117919921875,0.19404643774032593,-0.3920961320400238,-0.9856481552124023
1772455356942135800,6.5731357421875,0.06040022522211075,-0.2820764183998108,-1.1056342124938965
1772455356952153900,6.58315380859375,-0.07974755764007568,-0.18145714700222015,-1.1107722520828247
1772455356962172000,6.593171875,-0.18946899473667145,-0.10613842308521271,-1.0132927894592285
1772455356972190000,6.60318994140625,-0.24507100880146027,-0.04158925637602806,-0.8369630575180054
1772455356982206700,6.613206787109375,-0.25520408153533936,0.0038980687968432903,-0.6139031052589417
1772455356992225000,6.62322509765625,-0.21628382802009583,0.010660633444786072,-0.3733770549297333
1772455357002242800,6.633242919921875,-0.1511559635400772,-0.010668889619410038,-0.14268817007541656
1772455357012260900,6.6432607421875,-0.0663374811410904,-0.019582755863666534,0.057436127215623856
1772455357022279000,6.65327880859375,0.02437032014131546,0.017894843593239784,0.2101692110300064
1772455357032297000,6.663296875,0.11407224088907242,0.06943366676568985,0.3140450119972229
1772455357042315000,6.67331494140625,0.19350874423980713,0.1165820062160492,0.3743877112865448
1772455357052332800,6.683332763671875,0.2509336769580841,0.1502174586057663,0.3998376727104187
1772455357062350000,6.69335009765625,0.28163033723831177,0.1577123999595642,0.39520084857940674
1772455357072367900,6.703367919921875,0.288520485162735,0.14472655951976776,0.36415717005729675
1772455357082386000,6.713385986328125,0.2817933261394501,0.09748447686433792,0.31575849652290344
1772455357092404000,6.723404052734375,0.2653845250606537,0.029747242107987404,0.2443207949399948
1772455357102422000,6.733422119140625,0.2496282011270523,-0.056164469569921494,0.16039712727069855
1772455357112439800,6.743439697265625,0.23510253429412842,-0.14227645099163055,0.06352730840444565
1772455357122457900,6.753457763671875,0.21843886375427246,-0.20900382101535797,-0.04123212397098541
1772455357132476000,6.763475830078125,0.2013472318649292,-0.25951945781707764,-0.15379035472869873
1772455357142494000,6.773493896484375,0.17462320625782013,-0.27705636620521545,-0.2527744770050049
1772455357152511700,6.78351171875,0.1390654742717743,-0.2491443157196045,-0.3280298113822937
1772455357162529000,6.793529052734375,0.0967334657907486,-0.2005046010017395,-0.3745648264884949
1772455357172546800,6.803546875,0.04297862574458122,-0.17365221679210663,-0.3865154981613159
1772455357182564900,6.81356494140625,-0.01979927159845829,-0.1798858791589737,-0.37252935767173767
1772455357192583000,6.8235830078125,-0.07994729280471802,-0.20092618465423584,-0.3338852822780609
1772455357202601000,6.83360107421875,-0.13576476275920868,-0.21646146476268768,-0.2846090793609619
1772455357212618800,6.84361865234375,-0.17411135137081146,-0.23179860413074493,-0.23260581493377686
1772455357222637000,6.853636962890625,-0.19300007820129395,-0.21144646406173706,-0.17609912157058716
1772455357232654300,6.863654296875,-0.20325538516044617,-0.15339088439941406,-0.1230207309126854
1772455357242671600,6.873671630859375,-0.21845591068267822,-0.09795479476451874,-0.07416237890720367
1772455357252689400,6.883689453125,-0.24350745975971222,-0.06492680311203003,-0.03790663555264473
1772455357262707500,6.89370751953125,-0.27361956238746643,-0.05350423604249954,-0.006916229147464037
1772455357272725200,6.903725341796875,-0.3043662905693054,-0.05072150006890297,0.01563728228211403
1772455357282743600,6.91374365234375,-0.3221045434474945,-0.04806419834494591,0.03166471794247627
1772455357292761300,6.92376123046875,-0.3233615458011627,-0.05161259323358536,0.04182068258523941
1772455357302779400,6.933779296875,-0.32006189227104187,-0.05241527035832405,0.04893611744046211
1772455357312797200,6.943797119140625,-0.3143470287322998,-0.052024051547050476,0.06042685732245445
1772455357322815500,6.9538154296875,-0.30957862734794617,-0.03816576302051544,0.0705985352396965
1772455357332832300,6.963832275390625,-0.30546724796295166,-0.012901417911052704,0.09747728705406189
1772455357342850600,6.9738505859375,-0.3132079839706421,0.034691136330366135,0.13026213645935059
1772455357352868400,6.983868408203125,-0.32650434970855713,0.061355236917734146,0.151487797498703
1772455357362886400,6.993886474609375,-0.3519819974899292,0.011464376002550125,0.15321458876132965
1772455357372904400,7.003904541015625,-0.3791571855545044,-0.09290038049221039,0.12471157312393188
1772455357382922500,7.013922607421875,-0.400219589471817,-0.1975700706243515,0.07256022095680237
1772455357392940500,7.0239404296875,-0.4173692762851715,-0.2310265600681305,-0.00370072852820158
1772455357402958300,7.033958251953125,-0.43086591362953186,-0.22992907464504242,-0.0960378497838974
1772455357412976400,7.043976318359375,-0.43861064314842224,-0.21102382242679596,-0.19868886470794678
1772455357422993400,7.053993408203125,-0.4463079869747162,-0.18098150193691254,-0.291732519865036
1772455357433011500,7.064011474609375,-0.45205721259117126,-0.15231284499168396,-0.35148346424102783
1772455357443029500,7.074029541015625,-0.45809993147850037,-0.11172892898321152,-0.3709469139575958
1772455357453047600,7.084047607421875,-0.46465450525283813,-0.02864629216492176,-0.3486594557762146
1772455357463065300,7.0940654296875,-0.4653940498828888,0.0776284784078598,-0.2806428372859955
1772455357473083400,7.10408349609375,-0.45493581891059875,0.1723957359790802,-0.1794096976518631
1772455357483101400,7.114101318359375,-0.4266871511936188,0.2503153085708618,-0.04175224155187607
1772455357493119500,7.124119384765625,-0.3759177029132843,0.30605393648147583,0.10649794340133667
1772455357503137300,7.13413720703125,-0.3121078312397003,0.33188313245773315,0.26366519927978516
1772455357513154600,7.144154541015625,-0.23554754257202148,0.3068976104259491,0.41180646419525146
1772455357523172400,7.15417236328125,-0.167816162109375,0.24961063265800476,0.5285820960998535
1772455357533190400,7.1641904296875,-0.11044634878635406,0.19463498890399933,0.6209170818328857
1772455357543208400,7.17420849609375,-0.06953726708889008,0.1546175330877304,0.6749675273895264
1772455357553226500,7.1842265625,-0.04862825572490692,0.12112855166196823,0.684406578540802
1772455357563244300,7.194244384765625,-0.047208789736032486,0.10492854565382004,0.6549118161201477
1772455357573262300,7.204262451171875,-0.0716390311717987,0.09478110074996948,0.5862147212028503
1772455357583280400,7.2142802734375,-0.11953545361757278,0.09163644164800644,0.48560264706611633
1772455357593298400,7.22429833984375,-0.19150231778621674,0.1018371507525444,0.36299630999565125
1772455357603316200,7.234316162109375,-0.27789393067359924,0.11670051515102386,0.22606030106544495
1772455357613333500,7.24433349609375,-0.36058613657951355,0.12309183925390244,0.08155558258295059
1772455357623351300,7.254351318359375,-0.42681363224983215,0.11867418885231018,-0.06247962266206741
1772455357633369300,7.264369384765625,-0.45479413866996765,0.12129367142915726,-0.1874990612268448
1772455357643387400,7.274387451171875,-0.45191526412963867,0.11962679773569107,-0.29569822549819946
1772455357653405400,7.284405517578125,-0.4145236909389496,0.10926603525876999,-0.37815767526626587
1772455357663423500,7.294423583984375,-0.3577272593975067,0.09778701514005661,-0.4272107183933258
1772455357673441500,7.304441650390625,-0.2895561754703522,0.10208775103092194,-0.4241834878921509
1772455357683459600,7.31445947265625,-0.21784017980098724,0.11922572553157806,-0.3754902780056
1772455357693476400,7.324476318359375,-0.1511506289243698,0.15646976232528687,-0.27855971455574036
1772455357703494400,7.334494384765625,-0.09416857361793518,0.2160651832818985,-0.14822834730148315
1772455357713512400,7.344512451171875,-0.04691770672798157,0.273315966129303,0.01245081052184105
1772455357723530500,7.354530517578125,-0.00695085059851408,0.3252499997615814,0.18019826710224152
1772455357733548300,7.36454833984375,0.033369675278663635,0.3714478611946106,0.335673063993454
1772455357743566600,7.374566650390625,0.0718371719121933,0.3857530355453491,0.4629490077495575
1772455357753584400,7.38458447265625,0.11161760985851288,0.37391233444213867,0.5603336095809937
1772455357763602400,7.3946025390625,0.14942091703414917,0.3554545044898987,0.6177366971969604
1772455357773620500,7.404620361328125,0.18062730133533478,0.3101173937320709,0.633236825466156
1772455357783637500,7.414637451171875,0.20598086714744568,0.24362944066524506,0.6065863370895386
1772455357793655300,7.4246552734375,0.21440310776233673,0.163557231426239,0.5335882902145386
1772455357803673600,7.434673583984375,0.1992475986480713,0.08280806243419647,0.4232838749885559
1772455357813691400,7.44469140625,0.17062793672084808,0.009755691513419151,0.28597742319107056
1772455357823709400,7.45470947265625,0.123713418841362,-0.04339727386832237,0.1249547153711319
1772455357833727200,7.464727294921875,0.06783763319253922,-0.06719794869422913,-0.040520794689655304
1772455357843745500,7.47474560546875,0.003638410707935691,-0.05499241128563881,-0.2030457854270935
1772455357853763300,7.484763427734375,-0.05656341090798378,-0.01818273216485977,-0.3388789892196655
1772455357863781400,7.494781494140625,-0.11362003535032272,0.04372750595211983,-0.44402939081192017
1772455357873799400,7.50479931640625,-0.15199725329875946,0.08919059485197067,-0.5142260193824768
1772455357883816400,7.51481640625,-0.16837996244430542,0.10681965947151184,-0.5324510931968689
1772455357893834200,7.524834228515625,-0.15288569033145905,0.09859421849250793,-0.5062011480331421
1772455357903852500,7.5348525390625,-0.12795263528823853,0.0726931095123291,-0.4508310854434967
1772455357913870300,7.544870361328125,-0.09466978162527084,0.05368959531188011,-0.38452982902526855
1772455357923888400,7.554888427734375,-0.07096072286367416,0.056961022317409515,-0.3103317618370056
1772455357933906400,7.564906494140625,-0.04851427301764488,0.06483305990695953,-0.24489577114582062
1772455357943924500,7.574924560546875,-0.023987891152501106,0.06205271929502487,-0.191219761967659
1772455357953942500,7.584942626953125,0.008917595259845257,0.06926482170820236,-0.14027827978134155
1772455357963959600,7.59495947265625,0.050988614559173584,0.07938989996910095,-0.10022300481796265
1772455357973977300,7.604977294921875,0.08826807886362076,0.0717620700597763,-0.07025019079446793
1772455357983995400,7.614995361328125,0.11530182510614395,0.05776263028383255,-0.04614325985312462
1772455357994013200,7.62501318359375,0.13693228363990784,0.05242006480693817,-0.02755199931561947
1772455358004031500,7.635031494140625,0.15461887419223785,0.04805674031376839,-0.007583617232739925
1772455358014049500,7.645049560546875,0.17402958869934082,0.05372767522931099,0.005316202063113451
1772455358024067300,7.6550673828125,0.1893552839756012,0.07585588097572327,0.017186444252729416
1772455358034085600,7.665085693359375,0.20678433775901794,0.09668739140033722,0.030286001041531563
1772455358044103400,7.675103515625,0.2205193191766739,0.09946294128894806,0.0440063402056694
1772455358054120200,7.6851201171875,0.2287740558385849,0.08762199431657791,0.05872083827853203
1772455358064138500,7.695138427734375,0.22893278300762177,0.0694642961025238,0.07047336548566818
1772455358074156500,7.705156494140625,0.21593070030212402,0.07897098362445831,0.07452856004238129
1772455358084174300,7.71517431640625,0.19614741206169128,0.11087218672037125,0.07689318060874939
1772455358094192400,7.7251923828125,0.18779759109020233,0.11822837591171265,0.06865709275007248
1772455358104210400,7.73521044921875,0.19487041234970093,0.06463678181171417,0.046557117253541946
1772455358114228500,7.745228515625,0.2324817180633545,-0.05072017014026642,0.019055183976888657
1772455358124246300,7.755246337890625,0.28847333788871765,-0.165312260389328,0.005372128449380398
1772455358134264600,7.7652646484375,0.33074116706848145,-0.23684796690940857,-0.00021278657368384302
1772455358144282400,7.775282470703125,0.3068728446960449,-0.271004855632782,-0.026019349694252014
1772455358154299400,7.78529931640625,0.19596683979034424,-0.29402416944503784,-0.08459344506263733
1772455358164317400,7.7953173828125,0.025226527824997902,-0.28410816192626953,-0.1768791675567627
1772455358174335500,7.80533544921875,-0.14218324422836304,-0.22864197194576263,-0.28284740447998047
1772455358184353300,7.815353271484375,-0.25872236490249634,-0.1561475247144699,-0.381849080324173
1772455358194371600,7.82537158203125,-0.30278462171554565,-0.06520909816026688,-0.4689810574054718
1772455358204389400,7.835389404296875,-0.28072434663772583,-0.0009177253232337534,-0.5262662172317505
1772455358214407400,7.845407470703125,-0.20572440326213837,0.042481679469347,-0.5425876379013062
1772455358224425200,7.85542529296875,-0.10907375812530518,0.10648436844348907,-0.5001546740531921
1772455358234443500,7.865443603515625,0.0028309402987360954,0.1785029023885727,-0.3895392417907715
1772455358244461600,7.875461669921875,0.1284666359424591,0.25134143233299255,-0.20102497935295105
1772455358254479600,7.885479736328125,0.2671147882938385,0.327483594417572,0.041783664375543594
1772455358264497400,7.895497314453125,0.3968815803527832,0.4210529625415802,0.31683841347694397
1772455358274515700,7.905515625,0.5106459259986877,0.4995155334472656,0.5917264223098755
1772455358284533500,7.915533447265625,0.6036843061447144,0.514498770236969,0.8469725847244263
1772455358294551600,7.925551513671875,0.6629499793052673,0.46111249923706055,1.0562642812728882
1772455358304569600,7.935569580078125,0.6794496178627014,0.3567245602607727,1.2033957242965698
1772455358314587600,7.945587646484375,0.6366621851921082,0.21633842587471008,1.2709786891937256
1772455358324605400,7.95560546875,0.5473730564117432,0.01095517911016941,1.233428955078125
1772455358334622700,7.965622802734375,0.43163156509399414,-0.2355233132839203,1.0914368629455566
1772455358344640500,7.975640625,0.3208826780319214,-0.43546199798583984,0.8489710092544556
1772455358354658600,7.985658447265625,0.23334777355194092,-0.5532533526420593,0.5166524648666382
1772455358364676400,7.99567626953125,0.18597066402435303,-0.5901447534561157,0.12284735590219498
1772455358374694700,8.005694580078124,0.16630375385284424,-0.5518948435783386,-0.2796652019023895
1772455358384712400,8.01571240234375,0.13439509272575378,-0.44383442401885986,-0.6361895203590393
1772455358394730500,8.02573046875,0.049490321427583694,-0.31016477942466736,-0.9228028655052185
1772455358404748500,8.03574853515625,-0.08199314028024673,-0.20348495244979858,-1.100749135017395
1772455358414766600,8.0457666015625,-0.23665249347686768,-0.1426232010126114,-1.1663161516189575
1772455358424783400,8.055783447265625,-0.37505483627319336,-0.12152749300003052,-1.126373291015625
1772455358434801700,8.0658017578125,-0.4675091505050659,-0.10467687994241714,-1.0087766647338867
1772455358444819500,8.0758193359375,-0.5114068388938904,-0.09389320760965347,-0.8429186940193176
1772455358454837500,8.08583740234375,-0.4985722601413727,-0.0741938054561615,-0.6440005302429199
1772455358464855600,8.09585546875,-0.4417089521884918,-0.02647262066602707,-0.43009838461875916
1772455358474873600,8.10587353515625,-0.3493020832538605,0.06562934070825577,-0.21645401418209076
1772455358484891600,8.1158916015625,-0.22307729721069336,0.17642030119895935,-0.008140751160681248
1772455358494909400,8.125909423828125,-0.08209460228681564,0.2822074592113495,0.1861986368894577
1772455358504927700,8.135927734375,0.046354182064533234,0.3386443555355072,0.3514688313007355
1772455358514944500,8.145944580078124,0.14284023642539978,0.3379538059234619,0.48014476895332336
1772455358524962600,8.155962646484374,0.1999322921037674,0.29198896884918213,0.5714848041534424
1772455358534980600,8.165980712890626,0.23074746131896973,0.220302015542984,0.6287289261817932
1772455358544998700,8.17599853515625,0.23559388518333435,0.14135073125362396,0.634201169013977
1772455358555016400,8.186016357421876,0.2181997150182724,0.06713749468326569,0.5982351899147034
1772455358565034800,8.19603466796875,0.1915859431028366,-0.013623666949570179,0.5104648470878601
1772455358575052500,8.206052490234375,0.1646864116191864,-0.08496176451444626,0.3752937316894531
1772455358585070600,8.216070556640625,0.13952620327472687,-0.13529710471630096,0.21156737208366394
1772455358595088400,8.22608837890625,0.11030466854572296,-0.15652036666870117,0.022303974255919456
1772455358605105700,8.236105712890625,0.08050895482301712,-0.16625182330608368,-0.16932697594165802
1772455358615123500,8.24612353515625,0.04243534058332443,-0.17962782084941864,-0.33420780301094055
1772455358625141500,8.2561416015625,-0.0049614692106842995,-0.1962536722421646,-0.467956006526947
1772455358635159600,8.26615966796875,-0.05933629348874092,-0.2178335189819336,-0.5571884512901306
1772455358645177600,8.276177490234375,-0.11303414404392242,-0.2388775646686554,-0.5990703701972961
1772455358655195400,8.2861953125,-0.1581110805273056,-0.24467872083187103,-0.5895146727561951
1772455358665213700,8.296213623046874,-0.19320940971374512,-0.2440587431192398,-0.5412642955780029
1772455358675231500,8.3062314453125,-0.22846806049346924,-0.22808189690113068,-0.47382083535194397
1772455358685249500,8.31624951171875,-0.255682110786438,-0.1991056501865387,-0.3936684727668762
1772455358695266600,8.3262666015625,-0.27014175057411194,-0.1800544559955597,-0.31308841705322266
1772455358705284600,8.33628466796875,-0.2703116536140442,-0.16591493785381317,-0.2345818728208542
1772455358715302400,8.346302490234375,-0.24678075313568115,-0.15289127826690674,-0.16321182250976562
1772455358725320700,8.35632080078125,-0.21322119235992432,-0.14014245569705963,-0.095965676009655
1772455358735338500,8.36633837890625,-0.17421653866767883,-0.11889895796775818,-0.035042937844991684
1772455358745356500,8.3763564453125,-0.13719487190246582,-0.09038528800010681,0.02672082744538784
1772455358755374300,8.386374267578125,-0.10858959704637527,-0.056237705051898956,0.0835351049900055
1772455358765392600,8.396392578125,-0.09478642791509628,-0.015565910376608372,0.13775120675563812
1772455358775410700,8.40641064453125,-0.10168907791376114,0.0067569720558822155,0.1848854273557663
1772455358785427500,8.416427490234375,-0.12263297289609909,-0.0009771138429641724,0.21972809731960297
1772455358795445500,8.426445556640624,-0.14651113748550415,-0.03415370732545853,0.23462262749671936
1772455358805463600,8.436463623046874,-0.16096198558807373,-0.08034224063158035,0.23558908700942993
1772455358815481600,8.446481689453124,-0.17082419991493225,-0.1181522086262703,0.21885432302951813
1772455358825499600,8.456499755859374,-0.16476339101791382,-0.14972132444381714,0.1919396072626114
1772455358835517700,8.466517578125,-0.14678837358951569,-0.1550881266593933,0.16270290315151215
1772455358845535500,8.476535400390626,-0.13174444437026978,-0.06524957716464996,0.14643710851669312
1772455358855553500,8.486553466796876,-0.13322436809539795,0.03916124999523163,0.13518790900707245
1772455358865571600,8.496571533203126,-0.15407691895961761,0.048288702964782715,0.11492418497800827
1772455358875588600,8.506588623046875,-0.19605232775211334,-0.054791875183582306,0.08533567190170288
1772455358885606400,8.5166064453125,-0.24284780025482178,-0.20665863156318665,0.027208717539906502
1772455358895624700,8.526624755859375,-0.2865907549858093,-0.29148563742637634,-0.052445363253355026
1772455358905642500,8.536642578125,-0.3185739815235138,-0.27219370007514954,-0.14105112850666046
1772455358915660500,8.54666064453125,-0.33685818314552307,-0.19615831971168518,-0.23573848605155945
1772455358925678600,8.5566787109375,-0.34820857644081116,-0.09697741270065308,-0.30496442317962646
1772455358935696600,8.566696533203125,-0.3591190278530121,-0.013794375583529472,-0.34130141139030457
1772455358945714400,8.57671435546875,-0.36471670866012573,0.01558242179453373,-0.34903016686439514
1772455358955732500,8.586732421875,-0.35587766766548157,0.005086104851216078,-0.3199463188648224
1772455358965749500,8.59674951171875,-0.33984944224357605,-0.02101314067840576,-0.2641048729419708
1772455358975767600,8.606767578125,-0.32522761821746826,-0.03299949690699577,-0.19263043999671936
1772455358985785600,8.61678564453125,-0.31756117939949036,-0.02755972184240818,-0.10826468467712402
1772455358995803600,8.6268037109375,-0.30994534492492676,0.005883721634745598,-0.024768196046352386
1772455359005821400,8.636821533203126,-0.2750595211982727,0.05085838586091995,0.07186166942119598
1772455359015839500,8.646839599609375,-0.21078068017959595,0.09038396179676056,0.16684144735336304
1772455359025857500,8.656857421875,-0.12043054401874542,0.12539254128932953,0.2629126012325287
1772455359035875600,8.66687548828125,-0.025481924414634705,0.1468709409236908,0.34873294830322266
1772455359045893400,8.676893310546875,0.04890841990709305,0.14611992239952087,0.4337104260921478
1772455359055910700,8.68691064453125,0.0864693745970726,0.11726590245962143,0.5110459327697754
1772455359065928400,8.696928466796875,0.0877639427781105,0.07410618662834167,0.569270133972168
1772455359075946500,8.706946533203125,0.06203114613890648,0.0029907298739999533,0.5974674224853516
1772455359085964500,8.716964599609375,0.010811635293066502,-0.06984566152095795,0.5898123979568481
1772455359095982600,8.726982666015624,-0.0675276443362236,-0.11763821542263031,0.5398573875427246
1772455359106000600,8.737000732421874,-0.16460706293582916,-0.11759161204099655,0.4442080855369568
1772455359116018400,8.747018310546874,-0.27044907212257385,-0.05163975805044174,0.3167385458946228
1772455359126036700,8.75703662109375,-0.37454935908317566,0.047627441585063934,0.16315217316150665
1772455359136054500,8.767054443359376,-0.46329042315483093,0.13299374282360077,-0.0026373283471912146
1772455359146071600,8.777071533203125,-0.5214874148368835,0.19805875420570374,-0.15769349038600922
1772455359156089600,8.787089599609375,-0.5465419292449951,0.21540579199790955,-0.2812814712524414
1772455359166107600,8.797107666015625,-0.5374969840049744,0.18400365114212036,-0.3658461570739746
1772455359176125400,8.80712548828125,-0.5048139095306396,0.12096370756626129,-0.40241456031799316
1772455359186143700,8.817143798828125,-0.4608951807022095,0.035777438431978226,-0.4095398485660553
1772455359196161500,8.82716162109375,-0.4039165675640106,-0.06290119886398315,-0.39299681782722473
1772455359206179600,8.8371796875,-0.33675166964530945,-0.1389877200126648,-0.3585570752620697
1772455359216197400,8.847197265625,-0.2698669135570526,-0.16868461668491364,-0.30848008394241333
1772455359226215700,8.857215576171875,-0.2012590765953064,-0.12045957148075104,-0.2450598180294037
1772455359236232200,8.867232177734374,-0.11710958182811737,-0.029270537197589874,-0.16632559895515442
1772455359246250500,8.87725048828125,-0.012913135811686516,0.11909123510122299,-0.058828696608543396
1772455359256268300,8.887268310546874,0.09518244117498398,0.2775450646877289,0.07791157811880112
1772455359266286300,8.897286376953126,0.19195398688316345,0.3796301484107971,0.22881001234054565
1772455359276304100,8.90730419921875,0.2613575756549835,0.4073469936847687,0.38376471400260925
1772455359286322400,8.917322509765626,0.3178304433822632,0.35795947909355164,0.5265407562255859
1772455359296340200,8.92734033203125,0.36179468035697937,0.29433655738830566,0.6536382436752319
1772455359306358300,8.937358154296875,0.38060247898101807,0.19923241436481476,0.7424712181091309
1772455359316376300,8.947376220703125,0.3795052468776703,0.10294662415981293,0.7807062268257141
1772455359326393300,8.957393310546875,0.3585512340068817,0.005803826730698347,0.7581636309623718
1772455359336411100,8.9674111328125,0.3245043158531189,-0.06015441566705704,0.67275071144104
1772455359346429400,8.977429443359375,0.2812953293323517,-0.09945521503686905,0.5235841274261475
1772455359356447200,8.987447265625,0.23312486708164215,-0.13138411939144135,0.33100083470344543
1772455359366465300,8.99746533203125,0.18193651735782623,-0.15871481597423553,0.10925751179456711
1772455359376483300,9.0074833984375,0.12719443440437317,-0.179936483502388,-0.12082761526107788
1772455359386501400,9.01750146484375,0.07220335304737091,-0.20017170906066895,-0.34374484419822693
1772455359396519200,9.027519287109374,0.02315964736044407,-0.19710774719715118,-0.5283445119857788
1772455359406537200,9.037537109375,-0.01518987212330103,-0.17378723621368408,-0.6636229753494263
1772455359416555500,9.047555419921874,-0.03519713506102562,-0.15172934532165527,-0.7371866703033447
1772455359426572300,9.057572265625,-0.03827734664082527,-0.12352140247821808,-0.7515208721160889
1772455359436590000,9.067590087890625,-0.029856964945793152,-0.08970538526773453,-0.713700532913208
1772455359446608400,9.0776083984375,-0.016587765887379646,-0.05934241786599159,-0.6329590678215027
1772455359456626200,9.087626220703125,0.0041159153915941715,-0.03720249608159065,-0.518992006778717
1772455359466644200,9.097644287109375,0.0412377193570137,-0.004225371405482292,-0.37755367159843445
1772455359476662300,9.107662353515625,0.0880851149559021,0.037511955946683884,-0.22765526175498962
1772455359486680300,9.117680419921875,0.14218111336231232,0.05054306983947754,-0.081255704164505
1772455359496698400,9.127698486328125,0.19384989142417908,0.0460796095430851,0.04554405063390732
1772455359506716200,9.137716064453125,0.24477140605449677,0.022906647995114326,0.14094246923923492
1772455359516733400,9.1477333984375,0.29410645365715027,-0.002834668615832925,0.19767872989177704
1772455359526751200,9.157751220703124,0.33636894822120667,-0.002273274352774024,0.22521181404590607
1772455359536769300,9.167769287109374,0.36440858244895935,0.021229654550552368,0.22147193551063538
1772455359546787300,9.177787353515624,0.370562881231308,0.06042765825986862,0.19879965484142303
1772455359556805400,9.187805419921874,0.34869247674942017,0.09190701693296432,0.1632709503173828
1772455359566823200,9.1978232421875,0.3175334930419922,0.11300138384103775,0.12325268983840942
1772455359576841500,9.207841552734376,0.28508445620536804,0.12582078576087952,0.08916449546813965
1772455359586859300,9.217859375,0.2624838054180145,0.14949095249176025,0.05757115036249161
1772455359596877300,9.227877197265625,0.2451905757188797,0.17225325107574463,0.03345196694135666
1772455359606894300,9.237894287109375,0.2313022017478943,0.14788080751895905,0.007004646118730307
1772455359616912400,9.247912353515625,0.23052161931991577,0.04358662664890289,-0.02858477272093296
1772455359626930200,9.25793017578125,0.2506149113178253,-0.09490946680307388,-0.06668475270271301
1772455359636948200,9.2679482421875,0.28587275743484497,-0.20091819763183594,-0.09749166667461395
1772455359646966300,9.27796630859375,0.30826833844184875,-0.2452089637517929,-0.13886147737503052
1772455359656984300,9.287984375,0.2814521789550781,-0.2503003776073456,-0.19670294225215912
1772455359667002000,9.298002197265625,0.20405060052871704,-0.25074753165245056,-0.2635384202003479
1772455359677020400,9.3080205078125,0.10014737397432327,-0.23886743187904358,-0.32122835516929626
1772455359687038200,9.3180380859375,0.024836640805006027,-0.16097158193588257,-0.3453478217124939
1772455359697055200,9.32805517578125,-0.017650632187724113,-0.04574858024716377,-0.341723769903183
1772455359707073300,9.3380732421875,-0.024529844522476196,0.06254753470420837,-0.3127935826778412
1772455359717091300,9.34809130859375,-0.011827897280454636,0.12049925327301025,-0.2762574255466461
1772455359727109000,9.358109130859376,0.010001501068472862,0.1329846829175949,-0.2203720510005951
1772455359737127400,9.36812744140625,0.04132213816046715,0.14196832478046417,-0.1543826460838318
1772455359747145200,9.378145263671875,0.09073096513748169,0.15741066634655,-0.07597093284130096
1772455359757163300,9.388163330078125,0.1654755175113678,0.18620716035366058,0.02064722217619419
1772455359767181300,9.398181396484375,0.26649773120880127,0.23361781239509583,0.13833603262901306
1772455359777199400,9.408199462890625,0.3800426721572876,0.28367751836776733,0.27111274003982544
1772455359787216100,9.418216064453125,0.49836158752441406,0.3211873471736908,0.40863996744155884
1772455359797234200,9.428234130859375,0.5966447591781616,0.3384323716163635,0.5392067432403564
1772455359807252500,9.43825244140625,0.6780354976654053,0.30682626366615295,0.6631547808647156
1772455359817270300,9.448270263671875,0.7305492758750916,0.23170912265777588,0.7714269757270813
1772455359827288300,9.458288330078124,0.738207995891571,0.11974664032459259,0.8426758050918579
1772455359837306400,9.468306396484374,0.6892684102058411,-0.032219987362623215,0.85596764087677
1772455359847324400,9.478324462890624,0.5991041660308838,-0.22891946136951447,0.7943008542060852
1772455359857342200,9.48834228515625,0.4868149161338806,-0.4197397530078888,0.6502547264099121
1772455359867360300,9.4983603515625,0.38441717624664307,-0.530485987663269,0.43829771876335144
1772455359877377300,9.508377197265625,0.30171430110931396,-0.5474689602851868,0.16611307859420776
1772455359887395300,9.518395263671875,0.24032364785671234,-0.47992318868637085,-0.13091939687728882
1772455359897413400,9.528413330078125,0.17115576565265656,-0.359544575214386,-0.41146132349967957
1772455359907431400,9.538431396484375,0.07952278852462769,-0.24481268227100372,-0.6417000889778137
1772455359917449200,9.54844921875,-0.029139243066310883,-0.15299513936042786,-0.7963770627975464
1772455359927467300,9.55846728515625,-0.13971662521362305,-0.08117794245481491,-0.8567104339599609
1772455359937485300,9.5684853515625,-0.23572544753551483,-0.04466493800282478,-0.8242986798286438
1772455359947503400,9.57850341796875,-0.3082273304462433,-0.036972131580114365,-0.7147245407104492
1772455359957521200,9.588521240234375,-0.35194820165634155,-0.02798582799732685,-0.563591718673706
1772455359967539200,9.598539306640625,-0.3705836534500122,-0.008550344966351986,-0.3932269215583801
1772455359977556200,9.60855615234375,-0.35748064517974854,0.028616197407245636,-0.2230197638273239
1772455359987574300,9.61857421875,-0.3127717673778534,0.07713766396045685,-0.06438085436820984
1772455359997592300,9.62859228515625,-0.24076120555400848,0.13783536851406097,0.068263478577137
1772455360007610400,9.6386103515625,-0.14624322950839996,0.20182526111602783,0.17635798454284668
1772455360017628200,9.648628173828126,-0.060087572783231735,0.233565092086792,0.24962234497070312
1772455360027646200,9.658646240234376,0.014882809482514858,0.22143597900867462,0.28812605142593384
1772455360037664500,9.66866455078125,0.07143024355173111,0.19736872613430023,0.3039918541908264
1772455360047682300,9.678682373046875,0.10825403779745102,0.16741029918193817,0.30618682503700256
1772455360057700400,9.688700439453125,0.13611096143722534,0.12133494764566422,0.2938199043273926
1772455360067717400,9.69871728515625,0.1637529730796814,0.0627206414937973,0.26460981369018555
1772455360077735200,9.708735107421875,0.19850963354110718,0.0024503744207322598,0.2243524044752121
1772455360087753200,9.718753173828125,0.22361284494400024,-0.051948949694633484,0.17812445759773254
1772455360097771500,9.728771484375,0.23981525003910065,-0.09606900811195374,0.12606365978717804
1772455360107789300,9.738789306640625,0.23427188396453857,-0.14908935129642487,0.06650685518980026
1772455360117807400,9.748807373046875,0.202858567237854,-0.22084422409534454,0.0023433153983205557
1772455360127825200,9.7588251953125,0.14725975692272186,-0.2696559727191925,-0.06625891476869583
1772455360137843500,9.768843505859374,0.08891309797763824,-0.29878857731819153,-0.12590520083904266
1772455360147861200,9.778861328125,0.03521284833550453,-0.3046645522117615,-0.17630872130393982
1772455360157878300,9.788878173828126,-0.013129650615155697,-0.2901018559932709,-0.21818506717681885
1772455360167896300,9.798896240234376,-0.05787528306245804,-0.2617967128753662,-0.24145683646202087
1772455360177914400,9.808914306640625,-0.1050795465707779,-0.21106882393360138,-0.2500937283039093
1772455360187932200,9.81893212890625,-0.15102680027484894,-0.1479090303182602,-0.2386123090982437
1772455360197950500,9.828950439453125,-0.19485896825790405,-0.09261941909790039,-0.20988905429840088
1772455360207968300,9.83896826171875,-0.23402075469493866,-0.06300453096628189,-0.15749375522136688
1772455360217986300,9.848986328125,-0.2602901756763458,-0.061959508806467056,-0.09186574071645737
1772455360228004000,9.859004150390625,-0.27288132905960083,-0.09980595856904984,-0.02311224304139614
1772455360238022700,9.869022705078125,-0.2694711685180664,-0.15157514810562134,0.03376275673508644
1772455360248039700,9.879039794921875,-0.2600211799144745,-0.19603794813156128,0.07911399006843567
1772455360258057500,9.889057373046874,-0.259830504655838,-0.21545612812042236,0.10350135713815689
1772455360268075800,9.89907568359375,-0.26651531457901,-0.20262208580970764,0.10087814182043076
1772455360278093600,9.909093505859374,-0.2882581651210785,-0.16064134240150452,0.08020029962062836
1772455360288111600,9.919111572265624,-0.3180277645587921,-0.12848180532455444,0.04200843721628189
1772455360298129700,9.929129638671874,-0.3410941958427429,-0.09987999498844147,0.0054213968105614185
1772455360308147700,9.939147705078126,-0.36031556129455566,-0.06592761725187302,-0.025967951864004135
1772455360318164500,9.94916455078125,-0.37356212735176086,-0.0751328319311142,-0.0507073849439621
1772455360328182800,9.959182861328125,-0.37740933895111084,-0.1401030421257019,-0.07627266645431519
1772455360338200600,9.96920068359375,-0.37052348256111145,-0.2085614651441574,-0.09944190084934235
1772455360348218600,9.979218505859375,-0.37068912386894226,-0.24953126907348633,-0.1263217180967331
1772455360358236700,9.989236572265625,-0.37998273968696594,-0.251420259475708,-0.15293282270431519
1772455360368254700,9.999254638671875,-0.4004265069961548,-0.22233134508132935,-0.1808970868587494
1772455360378272800,10.009272705078125,-0.4379504323005676,-0.1825471818447113,-0.22288820147514343
1772455360388290600,10.01929052734375,-0.48687803745269775,-0.14256460964679718,-0.2577681541442871
1772455360398308900,10.029308837890625,-0.5235428214073181,-0.11485521495342255,-0.2806937098503113
1772455360408325600,10.03932568359375,-0.5461267232894897,-0.07969029992818832,-0.2934100329875946
1772455360418343700,10.04934375,-0.5486311316490173,-0.046789076179265976,-0.29245102405548096
1772455360428361700,10.05936181640625,-0.5283823609352112,-0.00549356872215867,-0.28911009430885315
1772455360438379800,10.0693798828125,-0.4849690794944763,0.04862026497721672,-0.26230618357658386
1772455360448397600,10.0793974609375,-0.4123481512069702,0.10826361924409866,-0.20197147130966187
1772455360458415900,10.089415771484376,-0.31900835037231445,0.17120769619941711,-0.11381764709949493
1772455360468433700,10.09943359375,-0.20461812615394592,0.21745802462100983,0.007453122641891241
1772455360478451700,10.10945166015625,-0.09154243022203445,0.20329612493515015,0.14111211895942688
1772455360488469500,10.119469482421875,-0.0009366337326355278,0.16573624312877655,0.27790138125419617
1772455360498486800,10.12948681640625,0.06731779128313065,0.09694358706474304,0.40416663885116577
1772455360508504600,10.139504638671875,0.11059761792421341,0.013658554293215275,0.5005440711975098
1772455360518522600,10.149522705078125,0.12614542245864868,-0.05421130731701851,0.5673776865005493
1772455360528540700,10.159540771484375,0.10476183146238327,-0.0738220289349556,0.5968833565711975
1772455360538558700,10.169558837890625,0.04758482798933983,-0.05446137860417366,0.5695156455039978
1772455360548576500,10.179576416015625,-0.03321201354265213,-0.017234647646546364,0.5007981061935425
1772455360558594800,10.1895947265625,-0.11123544722795486,0.041599906980991364,0.388380229473114
1772455360568612600,10.199612548828124,-0.1681368052959442,0.12176291644573212,0.26088377833366394
1772455360578630700,10.209630615234374,-0.20846213400363922,0.20345725119113922,0.11990882456302643
1772455360588647700,10.219647705078126,-0.23308119177818298,0.2547862231731415,-0.015419436618685722
1772455360598665700,10.229665771484376,-0.2508527338504791,0.26284652948379517,-0.12875105440616608
1772455360608683500,10.23968359375,-0.260171115398407,0.23827941715717316,-0.20737822353839874
1772455360618701800,10.249701904296876,-0.2554416358470917,0.1777327060699463,-0.2559944987297058
1772455360628719600,10.2597197265625,-0.23751722276210785,0.09530894458293915,-0.27590322494506836
1772455360638737700,10.269737548828125,-0.20972074568271637,0.016977651044726372,-0.28213581442832947
1772455360648755700,10.279755615234375,-0.16576233506202698,-0.036258671432733536,-0.273502916097641
1772455360658773800,10.289773681640625,-0.12030164152383804,-0.04976542666554451,-0.25855112075805664
1772455360668791800,10.299791748046875,-0.07857603579759598,-0.00040746363811194897,-0.2263479232788086
1772455360678809600,10.3098095703125,-0.040529318153858185,0.0795411616563797,-0.18040652573108673
1772455360688827600,10.31982763671875,-0.0017539578257128596,0.15398290753364563,-0.11692342162132263
1772455360698845700,10.329845703125,0.053815294057130814,0.19750002026557922,-0.03875059261918068
1772455360708862700,10.33986279296875,0.11302908509969711,0.22263973951339722,0.05385124683380127
1772455360718880800,10.349880859375,0.18156926333904266,0.22923797369003296,0.1420878916978836
1772455360728898800,10.35989892578125,0.23880405724048615,0.20210756361484528,0.22062931954860687
1772455360738916600,10.36991650390625,0.2678506076335907,0.15499091148376465,0.2749934792518616
1772455360748934700,10.3799345703125,0.27084746956825256,0.10086589306592941,0.2945381700992584
1772455360758952700,10.38995263671875,0.2508002519607544,0.050095658749341965,0.2835070788860321
1772455360768970800,10.399970703125,0.21409045159816742,0.01972923055291176,0.25377848744392395
1772455360778988500,10.409988525390625,0.1971181333065033,0.013220996595919132,0.1809159815311432
1772455360789006600,10.420006591796875,0.21056362986564636,-0.008452074602246284,0.10496476292610168
1772455360799023600,10.430023681640625,0.22777031362056732,0.020732974633574486,0.026019616052508354
1772455360809041700,10.440041748046875,0.24228879809379578,0.04910336434841156,-0.05482117086648941
1772455360819059700,10.450059814453125,0.24395833909511566,0.0615009106695652,-0.11554071307182312
1772455360829077800,10.460077880859375,0.2284475564956665,0.08319688588380814,-0.16307440400123596
1772455360839095600,10.470095458984375,0.21647530794143677,0.07656854391098022,-0.18836964666843414
1772455360849113600,10.480113525390625,0.21143874526023865,0.035415779799222946,-0.18742156028747559
1772455360859131600,10.490131591796874,0.20755799114704132,-0.011415906250476837,-0.17429190874099731
1772455360869149700,10.500149658203124,0.20197680592536926,-0.044803157448768616,-0.15460528433322906
1772455360879167500,10.51016748046875,0.18849694728851318,-0.07350777089595795,-0.14510712027549744
1772455360889184800,10.520184814453126,0.16498948633670807,-0.05711468309164047,-0.15211710333824158
1772455360899202600,10.53020263671875,0.13473837077617645,-0.02359294332563877,-0.17027133703231812
1772455360909220600,10.540220703125,0.10502415150403976,-0.009071525186300278,-0.18822529911994934
1772455360919238700,10.55023876953125,0.08188021928071976,-0.018574217334389687,-0.20890074968338013
1772455360929256700,10.560256591796875,0.06983686983585358,-0.04693315550684929,-0.22921933233737946
1772455360939274800,10.570274658203125,0.07432696223258972,-0.05450771749019623,-0.24172793328762054
1772455360949292500,10.58029248046875,0.09355125576257706,-0.014243383891880512,-0.23730282485485077
1772455360959310800,10.590310791015625,0.12789803743362427,0.04297623038291931,-0.2109716236591339
1772455360969328600,10.60032861328125,0.17634546756744385,0.08527521789073944,-0.16955095529556274
1772455360979346700,10.6103466796875,0.21970093250274658,0.10149306803941727,-0.1111970916390419
1772455360989363700,10.62036376953125,0.26281803846359253,0.0999540239572525,-0.04502686485648155
1772455360999381800,10.6303818359375,0.3046001195907593,0.09333261102437973,0.02599245123565197
1772455361009399600,10.640399658203124,0.3301968276500702,0.08175452053546906,0.09307881444692612
1772455361019417900,10.65041796875,0.33465468883514404,0.08143573999404907,0.14176112413406372
1772455361029435600,10.660435546875,0.3108004927635193,0.06704800575971603,0.17512361705303192
1772455361039453700,10.67045361328125,0.2637600004673004,0.09268652647733688,0.18067364394664764
1772455361049471700,10.6804716796875,0.20877638459205627,0.12243323773145676,0.17121195793151855
1772455361059489800,10.69048974609375,0.15987488627433777,0.16529415547847748,0.13145123422145844
1772455361069507600,10.700507568359376,0.1326134353876114,0.21290801465511322,0.08304055780172348
1772455361079524900,10.71052490234375,0.1391911804676056,0.21450378000736237,0.018131865188479424
1772455361089542700,10.720542724609375,0.17338430881500244,0.14439313113689423,-0.04602954164147377
1772455361099560700,10.730560791015625,0.22460727393627167,0.03899853304028511,-0.09915188699960709
1772455361109578500,10.74057861328125,0.26922160387039185,-0.05751628801226616,-0.13688461482524872
1772455361119596800,10.7505966796875,0.2790074050426483,-0.11730585247278214,-0.15877392888069153
1772455361129614600,10.760614501953125,0.23422102630138397,-0.1379682570695877,-0.1798344850540161
1772455361139632600,10.770632568359375,0.14943796396255493,-0.150779128074646,-0.20539256930351257
1772455361149650700,10.780650634765625,0.05511198937892914,-0.1321287453174591,-0.231716588139534
1772455361159668700,10.790668701171874,-0.01817926950752735,-0.08025436103343964,-0.26051148772239685
1772455361169685500,10.800685546875,-0.06138719245791435,-0.02369840443134308,-0.2869713306427002
1772455361179703800,10.810703857421874,-0.06809782981872559,0.06957481801509857,-0.3128889203071594
1772455361189721600,10.8207216796875,-0.03146285191178322,0.1593230813741684,-0.3091477155685425
1772455361199739600,10.83073974609375,0.04096048325300217,0.21516530215740204,-0.27715757489204407
1772455361209757400,10.84075732421875,0.12116184085607529,0.24654079973697662,-0.21360762417316437
1772455361219775700,10.850775634765625,0.19393937289714813,0.246699258685112,-0.13194604218006134
1772455361229793800,10.860793701171875,0.24594426155090332,0.2076336145401001,-0.04313815012574196
1772455361239811600,10.8708115234375,0.2827360928058624,0.14572684466838837,0.05061923339962959
1772455361249829600,10.88082958984375,0.30559268593788147,0.08478280156850815,0.1269286572933197
1772455361259846700,10.8908466796875,0.3271046280860901,0.03177497535943985,0.18721622228622437
1772455361269864400,10.900864501953125,0.3459435701370239,0.008056861348450184,0.22337689995765686
1772455361279882800,10.9108828125,0.36789971590042114,0.020414993166923523,0.24837838113307953
1772455361289900500,10.920900634765625,0.39257603883743286,0.07639117538928986,0.2677571475505829
1772455361299918600,10.930918701171874,0.406729131937027,0.17733776569366455,0.2886834740638733
1772455361309936600,10.9409365234375,0.4075371325016022,0.2790606617927551,0.2904030680656433
1772455361319954700,10.95095458984375,0.404521644115448,0.333725243806839,0.2669509947299957
1772455361329972500,10.960972412109374,0.400256872177124,0.367459774017334,0.21662871539592743
1772455361339990500,10.970990478515626,0.4078410267829895,0.382291704416275,0.1725643128156662
1772455361350008600,10.981008544921876,0.38401851058006287,0.300321489572525,0.28976312279701233
1772455361360025600,10.991025634765625,0.3404180407524109,-0.10395196825265884,0.31978970766067505
1772455361370043400,11.00104345703125,0.28448179364204407,-0.4195227026939392,0.2369353175163269
1772455361380061700,11.011061767578125,0.26743435859680176,-0.5642071962356567,0.08351460099220276
1772455361390079500,11.02107958984375,0.2715311050415039,-0.5569343566894531,-0.1243768110871315
1772455361400097500,11.03109765625,0.269840270280838,-0.4426559805870056,-0.3873232305049896
1772455361410115600,11.041115478515625,0.24015215039253235,-0.2740829586982727,-0.6529226899147034
1772455361420133600,11.051133544921875,0.18518370389938354,-0.08326426148414612,-0.8103863596916199
1772455361430151700,11.061151611328125,0.11457718163728714,0.03141704574227333,-0.8314021229743958
1772455361440169500,11.07116943359375,0.043357327580451965,0.03509620204567909,-0.7534143924713135
