time,seconds_elapsed,z,y,x
1772455350458064400,0.089064453125,-0.1076846569776535,-0.038499943912029266,0.11524917185306549
1772455350468082400,0.09908251953125,-0.10922538489103317,-0.037269264459609985,0.0819372907280922
1772455350478100500,0.1091005859375,-0.1280542016029358,-0.036487095057964325,0.04681791737675667
1772455350488117500,0.119117431640625,-0.14826957881450653,-0.046408042311668396,0.01442734058946371
1772455350498135300,0.12913525390625,-0.16323494911193848,-0.04915323108434677,-0.002132993657141924
1772455350508153300,0.1391533203125,-0.17218676209449768,-0.026297491043806076,-0.0077659739181399345
1772455350518171400,0.14917138671875,-0.1823563128709793,-0.004984746687114239,-0.0015490907244384289
1772455350528189400,0.159189453125,-0.18020035326480865,0.004615639336407185,-0.00029646832263097167
1772455350538207500,0.16920751953125,-0.1499236673116684,0.004697664640843868,0.008876523934304714
1772455350548225300,0.179225341796875,-0.10661965608596802,0.007780555635690689,0.03910725936293602
1772455350558243600,0.18924365234375,-0.07328061014413834,0.019587412476539612,0.07891885936260223
1772455350568260400,0.19926025390625,-0.053869038820266724,0.021341176703572273,0.1283360719680786
1772455350578278400,0.2092783203125,-0.05518117919564247,0.011434484273195267,0.1757238209247589
1772455350588296400,0.21929638671875,-0.0662466511130333,0.006886351853609085,0.2193497270345688
1772455350598314500,0.229314453125,-0.08870269358158112,0.02617829106748104,0.25566884875297546
1772455350608332300,0.239332275390625,-0.11474455147981644,0.05951578542590141,0.27405065298080444
1772455350618350600,0.2493505859375,-0.138718843460083,0.09378480911254883,0.26888811588287354
1772455350628368400,0.259368408203125,-0.15363921225070953,0.10805678367614746,0.2385333925485611
1772455350638385400,0.269385498046875,-0.14438605308532715,0.11261318624019623,0.1898191124200821
1772455350648403500,0.279403564453125,-0.10623885691165924,0.10161446779966354,0.1403258740901947
1772455350658421500,0.28942138671875,-0.04155094176530838,0.0763557180762291,0.10697991400957108
1772455350668439300,0.299439208984375,0.025439398363232613,0.04340003803372383,0.10092668980360031
1772455350678457600,0.30945751953125,0.07124097645282745,0.01264745369553566,0.12337793409824371
1772455350688475400,0.319475341796875,0.08575460314750671,-0.01722475327551365,0.15893004834651947
1772455350698493400,0.329493408203125,0.07149230688810349,-0.03215470165014267,0.19823937118053436
1772455350708511200,0.33951123046875,0.039957839995622635,-0.03283621370792389,0.2276560217142105
1772455350718528500,0.349528564453125,0.008292852900922298,-0.03240131586790085,0.23787936568260193
1772455350728546300,0.35954638671875,-0.020444143563508987,-0.01968635804951191,0.22233659029006958
1772455350738564600,0.369564697265625,-0.019225748255848885,-0.02668088488280773,0.19104552268981934
1772455350748582400,0.37958251953125,0.002514591906219721,-0.04617811739444733,0.14490841329097748
1772455350758600400,0.389600341796875,0.0338946208357811,-0.0612284392118454,0.09543859213590622
1772455350768618200,0.3996181640625,0.06537800282239914,-0.06706849485635757,0.049843646585941315
1772455350778636500,0.409636474609375,0.09302667528390884,-0.056707195937633514,0.01870942860841751
1772455350788653300,0.4196533203125,0.10294368863105774,-0.02711218222975731,0.01495745126157999
1772455350798671400,0.42967138671875,0.09733667224645615,0.022789863869547844,0.0374385230243206
1772455350808689400,0.439689453125,0.07324324548244476,0.08118120580911636,0.07766715437173843
1772455350818707500,0.44970751953125,0.05114487186074257,0.09747282415628433,0.11836344748735428
1772455350828725200,0.459725341796875,0.040952447801828384,0.0810001865029335,0.16040904819965363
1772455350838743600,0.46974365234375,0.034583233296871185,0.053455911576747894,0.1978195458650589
1772455350848761300,0.47976123046875,0.03461737185716629,0.026512252166867256,0.22025041282176971
1772455350858779400,0.489779296875,0.05302194505929947,0.02118166908621788,0.24312883615493774
1772455350868796400,0.49979638671875,0.08049062639474869,0.023566247895359993,0.2566410303115845
1772455350878814500,0.509814453125,0.10017911344766617,0.012700283899903297,0.2557768225669861
1772455350888832300,0.519832275390625,0.1103285551071167,-0.013782232999801636,0.23505626618862152
1772455350898850600,0.5298505859375,0.08942113816738129,-0.024921702221035957,0.20467358827590942
1772455350908868400,0.539868408203125,0.0567656010389328,0.013226347975432873,0.17605137825012207
1772455350918886400,0.549886474609375,0.018029924482107162,0.061175230890512466,0.14026062190532684
1772455350928904400,0.559904541015625,-0.009829246439039707,0.1022699698805809,0.11480402946472168
1772455350938921500,0.56992138671875,-0.026439648121595383,0.1406639665365219,0.0917583629488945
1772455350948939300,0.579939208984375,-0.028948785737156868,0.12872613966464996,0.08520831167697906
1772455350958957300,0.589957275390625,-0.012461953796446323,0.08262548595666885,0.09595176577568054
1772455350968975400,0.599975341796875,0.01985001564025879,0.03680461645126343,0.1257152408361435
1772455350978993400,0.609993408203125,0.04872081056237221,0.01870577223598957,0.16704298555850983
1772455350989011500,0.620011474609375,0.05668595805764198,0.01966756023466587,0.19869732856750488
1772455350999029500,0.630029541015625,0.03694074973464012,0.021983711048960686,0.21024532616138458
1772455351009047600,0.640047607421875,-0.00220877630636096,0.017265740782022476,0.19696412980556488
1772455351019064300,0.650064208984375,-0.03629270941019058,0.020254872739315033,0.16614016890525818
1772455351029082600,0.66008251953125,-0.058413177728652954,0.0462789312005043,0.12451361119747162
1772455351039100400,0.670100341796875,-0.056726597249507904,0.07640807330608368,0.0812377780675888
1772455351049118500,0.680118408203125,-0.028453480452299118,0.12363392114639282,0.04345114156603813
1772455351059136500,0.690136474609375,0.02256442978978157,0.17254367470741272,0.022779688239097595
1772455351069154600,0.700154541015625,0.09576518833637238,0.19359257817268372,0.0369558222591877
1772455351079172400,0.71017236328125,0.18547457456588745,0.1909981220960617,0.0854160338640213
1772455351089190400,0.7201904296875,0.26044440269470215,0.20074395835399628,0.14565061032772064
1772455351099207400,0.73020751953125,0.30319321155548096,0.2096026986837387,0.20188085734844208
1772455351109225500,0.7402255859375,0.31344830989837646,0.18727269768714905,0.24376104772090912
1772455351119243300,0.7502431640625,0.2928048074245453,0.15063533186912537,0.2615176737308502
1772455351129261600,0.760261474609375,0.2574949562549591,0.10846098512411118,0.24856606125831604
1772455351139279400,0.770279296875,0.2119637131690979,0.08218889683485031,0.2164914757013321
1772455351149297400,0.78029736328125,0.16643203794956207,0.07573548704385757,0.16787640750408173
1772455351159315500,0.7903154296875,0.12544971704483032,0.07088826596736908,0.11423581838607788
1772455351169333500,0.80033349609375,0.10200075805187225,0.04148344695568085,0.05992225557565689
1772455351179350300,0.810350341796875,0.0873192846775055,-0.0012741354294121265,0.0179151501506567
1772455351189368600,0.82036865234375,0.08603218197822571,-0.03302611783146858,-0.010161499492824078
1772455351199386400,0.830386474609375,0.09910484403371811,-0.06581735610961914,-0.02554338425397873
1772455351209404400,0.840404296875,0.12915998697280884,-0.10282474011182785,-0.024934176355600357
1772455351219422500,0.85042236328125,0.17350853979587555,-0.12287035584449768,-0.00013055982708465308
1772455351229440500,0.8604404296875,0.2098134160041809,-0.06643295288085938,0.06851042807102203
1772455351239458600,0.87045849609375,0.20128171145915985,-0.11555948853492737,0.1265108734369278
1772455351249476400,0.880476318359375,0.15934744477272034,-0.15002207458019257,0.14942456781864166
1772455351259493400,0.890493408203125,0.1079108938574791,-0.04074512794613838,0.14284442365169525
1772455351269511400,0.900511474609375,0.05692506581544876,0.05202285200357437,0.1176726445555687
1772455351279529500,0.910529541015625,-0.005376656539738178,0.21999748051166534,0.07536406815052032
1772455351289547500,0.920547607421875,-0.07002891600131989,0.40251392126083374,0.013534638099372387
1772455351299565600,0.930565673828125,-0.10008082538843155,0.4035416543483734,-0.07792071253061295
1772455351309583400,0.940583251953125,-0.07265031337738037,0.1905619353055954,-0.187630295753479
1772455351319601400,0.950601318359375,0.009458670392632484,-0.08521132171154022,-0.2956385016441345
1772455351329619500,0.960619384765625,0.12467753142118454,-0.2996770739555359,-0.3774365782737732
1772455351339636500,0.970636474609375,0.21623274683952332,-0.43010032176971436,-0.4365691542625427
1772455351349654500,0.980654541015625,0.2482021600008011,-0.4631824791431427,-0.47986480593681335
1772455351359672600,0.990672607421875,0.23227939009666443,-0.42428088188171387,-0.5121676325798035
1772455351369690400,1.0006904296875,0.19658420979976654,-0.33503878116607666,-0.516122579574585
1772455351379708400,1.01070849609375,0.15575262904167175,-0.2064584195613861,-0.4767453372478485
1772455351389726500,1.0207265625,0.10161647200584412,-0.06592255085706711,-0.3973774015903473
1772455351399744500,1.03074462890625,0.02776222489774227,0.048192840069532394,-0.3020372986793518
1772455351409762300,1.04076220703125,-0.06012248620390892,0.12130463868379593,-0.20237208902835846
1772455351419779600,1.050779541015625,-0.13123928010463715,0.13616961240768433,-0.11697516590356827
1772455351429797400,1.06079736328125,-0.15872332453727722,0.10323214530944824,-0.04610006511211395
1772455351439815400,1.0708154296875,-0.13495807349681854,0.046402957290410995,-0.003423704532906413
1772455351449833500,1.08083349609375,-0.07659707218408585,-0.016015663743019104,0.014814820140600204
1772455351459851500,1.0908515625,-0.016484195366501808,-0.07002323865890503,0.011909045279026031
1772455351469869300,1.100869384765625,0.03153761476278305,-0.09520554542541504,0.0019787815399467945
1772455351479887400,1.110887451171875,0.05575107783079147,-0.09633712470531464,-0.008300754241645336
1772455351489904400,1.120904296875,0.05219431594014168,-0.07987209409475327,-0.01331972423940897
1772455351499922400,1.13092236328125,0.032080259174108505,-0.0527733638882637,-0.01542868185788393
1772455351509940500,1.1409404296875,-0.0006249655270949006,-0.0013227739837020636,-0.004201582167297602
1772455351519958500,1.15095849609375,-0.030990062281489372,0.06363731622695923,0.00806387234479189
1772455351529976300,1.160976318359375,-0.0516984760761261,0.10989978164434433,0.02408849447965622
1772455351539994400,1.170994384765625,-0.05819445848464966,0.12940317392349243,0.04233567416667938
1772455351550012400,1.181012451171875,-0.04936665669083595,0.1252766251564026,0.05610860884189606
1772455351560030500,1.191030517578125,-0.025373175740242004,0.09189176559448242,0.062062107026576996
1772455351570047500,1.201047607421875,0.008308939635753632,0.03928960859775543,0.06765113770961761
1772455351580065500,1.2110654296875,0.03767295181751251,-0.000970727764070034,0.06686177849769592
1772455351590083300,1.221083251953125,0.05696641281247139,-0.025728682056069374,0.06668999791145325
1772455351600101400,1.231101318359375,0.05251627042889595,-0.031022515147924423,0.06709559261798859
1772455351610119400,1.241119384765625,0.03195612505078316,-0.006935912184417248,0.06320419162511826
1772455351620137500,1.251137451171875,0.0009329632739536464,0.028562694787979126,0.055932965129613876
1772455351630155500,1.261155517578125,-0.02526327222585678,0.04243182763457298,0.044169921427965164
1772455351640173300,1.27117333984375,-0.03732898831367493,0.044620681554079056,0.028042351827025414
1772455351650190300,1.2811904296875,-0.03702886030077934,0.0479372963309288,0.012292426079511642
1772455351660208400,1.29120849609375,-0.02967826835811138,0.05261487141251564,0.000507937918882817
1772455351670226700,1.301226806640625,-0.014528026804327965,0.05947018787264824,-0.013991250656545162
1772455351680244500,1.311244384765625,-0.004060471896082163,0.04926681891083717,-0.02267022617161274
1772455351690262500,1.321262451171875,0.011816151440143585,0.02499062567949295,-0.01986859180033207
1772455351700280300,1.3312802734375,0.021638955920934677,-0.009964961558580399,-0.018078947439789772
1772455351710298600,1.341298583984375,0.01943071186542511,-0.04159950837492943,-0.01678692176938057
1772455351720316400,1.35131640625,0.006659524515271187,-0.06025814637541771,-0.016831928864121437
1772455351730333400,1.36133349609375,-0.014773818664252758,-0.043376121670007706,-0.015303406864404678
1772455351740351500,1.3713515625,-0.03732706606388092,0.007742457091808319,-0.015365990810096264
1772455351750369500,1.38136962890625,-0.040671322494745255,0.0409230962395668,-0.014881698414683342
1772455351760387300,1.39138720703125,-0.037848107516765594,0.04819512367248535,-0.00954232644289732
1772455351770405600,1.401405517578125,-0.024499082937836647,0.04978583753108978,-0.0026746776420623064
1772455351780423400,1.41142333984375,-0.010796318762004375,0.0521099790930748,0.010388659313321114
1772455351790441500,1.42144140625,0.00940002966672182,0.054601363837718964,0.03534780442714691
1772455351800459300,1.431459228515625,0.02475608140230179,0.04202538728713989,0.061853714287281036
1772455351810476500,1.4414765625,0.033450331538915634,0.018538761883974075,0.08941876143217087
1772455351820494300,1.451494384765625,0.029533088207244873,0.007008072920143604,0.11062497645616531
1772455351830512600,1.4615126953125,0.011687392368912697,0.013323361985385418,0.11985401809215546
1772455351840530400,1.471530517578125,-0.0028619891963899136,0.03244752064347267,0.11338147521018982
1772455351850548500,1.481548583984375,-0.015485922805964947,0.04920368641614914,0.09339819103479385
1772455351860566300,1.491566162109375,-0.007480993401259184,0.04805959016084671,0.06521341949701309
1772455351870584600,1.50158447265625,0.0035408595576882362,0.040429696440696716,0.030518820509314537
1772455351880602400,1.511602294921875,0.014678731560707092,0.05056115984916687,0.0016389702213928103
1772455351890619400,1.521619384765625,0.01605902425944805,0.08304579555988312,-0.010939288884401321
1772455351900637400,1.531637451171875,0.008503102697432041,0.10858204960823059,-0.001877351081930101
1772455351910655500,1.541655517578125,-0.017475157976150513,0.10242149978876114,0.013954618945717812
1772455351920673300,1.55167333984375,-0.043177325278520584,0.0461244061589241,0.02760837972164154
1772455351930691600,1.561691650390625,-0.0643213763833046,-0.042348869144916534,0.02964850515127182
1772455351940709400,1.57170947265625,-0.0740075558423996,-0.12182051688432693,0.006235592067241669
1772455351950727400,1.5817275390625,-0.07237564027309418,-0.1796359419822693,-0.04205126687884331
1772455351960745500,1.591745361328125,-0.059427615255117416,-0.1886259764432907,-0.09539332240819931
1772455351970762500,1.601762451171875,-0.04509977623820305,-0.14200717210769653,-0.1454017460346222
1772455351980780300,1.6117802734375,-0.033649783581495285,-0.04996141046285629,-0.17947982251644135
1772455351990798600,1.621798583984375,-0.02205260843038559,0.04683511331677437,-0.17895092070102692
1772455352000816400,1.63181640625,-0.010934176854789257,0.12769268453121185,-0.13383403420448303
1772455352010834400,1.64183447265625,-0.008987792767584324,0.17146959900856018,-0.059057943522930145
1772455352020852500,1.6518525390625,-0.013276813551783562,0.1534237414598465,0.033315129578113556
1772455352030870500,1.66187060546875,-0.017310936003923416,0.09729857742786407,0.12338683754205704
1772455352040887300,1.67188720703125,-0.016718648374080658,0.034680478274822235,0.19752871990203857
1772455352050905300,1.6819052734375,-0.009035634808242321,0.0026587957981973886,0.24138310551643372
1772455352060923600,1.691923583984375,0.0010873072315007448,0.015952764078974724,0.2591850161552429
1772455352070941400,1.70194140625,0.014509577304124832,0.03387247398495674,0.24768349528312683
1772455352080959500,1.71195947265625,0.019517652690410614,0.01563008688390255,0.23146964609622955
1772455352090977500,1.7219775390625,0.0061753797344863415,0.04684591665863991,0.22636118531227112
1772455352100995600,1.73199560546875,-0.012370874173939228,0.1391974240541458,0.23475679755210876
1772455352111013400,1.742013427734375,-0.00868191383779049,0.17301249504089355,0.24224315583705902
1772455352121031400,1.752031494140625,0.014520077966153622,0.1587587296962738,0.25134238600730896
1772455352131048400,1.76204833984375,0.055446986109018326,0.13531847298145294,0.26334473490715027
1772455352141066500,1.77206640625,0.09686340391635895,0.07683171331882477,0.2817285358905792
1772455352151084500,1.78208447265625,0.11893102526664734,0.012571285478770733,0.30337536334991455
1772455352161102600,1.7921025390625,0.12657375633716583,-0.047682732343673706,0.31974926590919495
1772455352171120400,1.802120361328125,0.1270912140607834,-0.10666269063949585,0.3244510889053345
1772455352181138400,1.812138427734375,0.13189928233623505,-0.14334213733673096,0.31995221972465515
1772455352191156500,1.822156494140625,0.14293964207172394,-0.16989712417125702,0.2991514801979065
1772455352201173500,1.832173583984375,0.14731387794017792,-0.17969809472560883,0.2700492739677429
1772455352211191300,1.84219140625,0.11939466744661331,-0.12701332569122314,0.23705600202083588
1772455352221209600,1.852209716796875,0.05944585055112839,-0.06705732643604279,0.19290000200271606
1772455352231227400,1.862227294921875,0.0022495442535728216,-0.07755172997713089,0.10523739457130432
1772455352241245200,1.8722451171875,-0.03207940235733986,-0.04329655319452286,-0.010569898411631584
1772455352251263500,1.882263427734375,-0.045942649245262146,-0.03706539794802666,-0.12598171830177307
1772455352261281300,1.89228125,-0.0489371083676815,-0.02053702436387539,-0.22144140303134918
1772455352271299300,1.90229931640625,-0.06873949617147446,0.020529061555862427,-0.30476903915405273
1772455352281316400,1.91231640625,-0.08387237042188644,0.08540340512990952,-0.3555275499820709
1772455352291334400,1.92233447265625,-0.08364972472190857,0.2075539082288742,-0.35399866104125977
1772455352301352200,1.932352294921875,-0.05801121145486832,0.3419061303138733,-0.29825523495674133
1772455352311370500,1.94237060546875,-0.036706987768411636,0.36363139748573303,-0.22432906925678253
1772455352321388300,1.95238818359375,-0.003044363809749484,0.1928764283657074,-0.16280153393745422
1772455352331406300,1.96240625,0.03276918828487396,-0.043230004608631134,-0.10953669250011444
1772455352341424000,1.972424072265625,0.07252752035856247,-0.20284682512283325,-0.06601718068122864
1772455352351442400,1.9824423828125,0.09209217876195908,-0.2943500280380249,-0.047604355961084366
1772455352361459200,1.992459228515625,0.09404214471578598,-0.32929763197898865,-0.04137016087770462
1772455352371477200,2.002477294921875,0.08089523017406464,-0.26224154233932495,-0.03869754821062088
1772455352381495300,2.012495361328125,0.060199543833732605,-0.10805170983076096,-0.023407544940710068
1772455352391513300,2.022513427734375,0.01789960265159607,0.040384139865636826,-0.004105334170162678
1772455352401531100,2.03253125,-0.03716711327433586,0.09298449754714966,0.001090227160602808
1772455352411549400,2.042549560546875,-0.07964500784873962,0.049093376845121384,-0.0035736479330807924
1772455352421567200,2.052567138671875,-0.10804415494203568,-0.040432512760162354,-0.023194219917058945
1772455352431585300,2.062585205078125,-0.11203713715076447,-0.13670647144317627,-0.055294353514909744
1772455352441602300,2.072602294921875,-0.11007092148065567,-0.18655817210674286,-0.10349810123443604
1772455352451620400,2.082620361328125,-0.10403668135404587,-0.1786104291677475,-0.15617209672927856
1772455352461638100,2.09263818359375,-0.09595931321382523,-0.14567378163337708,-0.20878444612026215
1772455352471656400,2.102656494140625,-0.09511622041463852,-0.10242436826229095,-0.24466682970523834
1772455352481674200,2.11267431640625,-0.09895250201225281,-0.032694555819034576,-0.25009357929229736
1772455352491692300,2.1226923828125,-0.10943616181612015,0.07469000667333603,-0.21611841022968292
1772455352501710000,2.1327099609375,-0.11703149974346161,0.16662739217281342,-0.15554136037826538
1772455352511728400,2.142728271484375,-0.11674998700618744,0.19171415269374847,-0.08109547197818756
1772455352521745200,2.1527451171875,-0.10951737314462662,0.16174480319023132,0.0008167073829099536
1772455352531763200,2.16276318359375,-0.09116943180561066,0.1191268339753151,0.08825281262397766
1772455352541781200,2.17278125,-0.06843961775302887,0.0850016176700592,0.16673269867897034
1772455352551799300,2.18279931640625,-0.035721030086278915,0.042491257190704346,0.22241179645061493
1772455352561817300,2.1928173828125,-0.002212339313700795,-0.017247971147298813,0.24814939498901367
1772455352571835400,2.20283544921875,0.02050861530005932,-0.07129096984863281,0.24317529797554016
1772455352581853400,2.212853515625,0.01738605834543705,-0.09428656101226807,0.21733731031417847
1772455352591871200,2.222871337890625,-0.011734087020158768,-0.07872664928436279,0.16729089617729187
1772455352601888300,2.23288818359375,-0.05591752752661705,-0.048184193670749664,0.10226982831954956
1772455352611906300,2.24290625,-0.09058983623981476,-0.00784339476376772,0.023710303008556366
1772455352621924400,2.25292431640625,-0.1154634952545166,0.027873056009411812,-0.042608533054590225
1772455352631942400,2.2629423828125,-0.12563028931617737,0.033470287919044495,-0.09662729501724243
1772455352641960400,2.27296044921875,-0.12923701107501984,0.009681865572929382,-0.12846378982067108
1772455352651978200,2.282978271484375,-0.13805852830410004,-0.02550753951072693,-0.14664237201213837
1772455352661996300,2.292996337890625,-0.14669835567474365,-0.0767504945397377,-0.1643340140581131
1772455352672014300,2.303014404296875,-0.15654484927654266,-0.11453647911548615,-0.17576219141483307
1772455352682031400,2.31303125,-0.14549139142036438,-0.11132443696260452,-0.17165958881378174
1772455352692049200,2.323049072265625,-0.12800529599189758,-0.06258726865053177,-0.14438310265541077
1772455352702067500,2.3330673828125,-0.10795968025922775,0.025281330570578575,-0.0983668714761734
1772455352712085200,2.343085205078125,-0.09767410904169083,0.1205170750617981,-0.038773324340581894
1772455352722103300,2.353103271484375,-0.09597181528806686,0.19686323404312134,0.03387477993965149
1772455352732121300,2.363121337890625,-0.09142349660396576,0.2548021078109741,0.11908821761608124
1772455352742139400,2.373139404296875,-0.08523537218570709,0.2514728903770447,0.1973808854818344
1772455352752157200,2.3831572265625,-0.059866778552532196,0.18584448099136353,0.26304447650909424
1772455352762174500,2.393174560546875,-0.028812190517783165,0.10572007298469543,0.30537089705467224
1772455352772192300,2.403192138671875,0.012429572641849518,0.017463795840740204,0.33116933703422546
1772455352782210300,2.413210205078125,0.04889916628599167,-0.04365229234099388,0.3186596632003784
1772455352792228000,2.42322802734375,0.07251079380512238,-0.07723609358072281,0.2747788727283478
1772455352802246400,2.433246337890625,0.08835074305534363,-0.09855416417121887,0.20934554934501648
1772455352812264200,2.44326416015625,0.09130419790744781,-0.09447438269853592,0.13471977412700653
1772455352822282200,2.4532822265625,0.07909360527992249,-0.06895171105861664,0.06627253443002701
1772455352832300300,2.46330029296875,0.057744961231946945,-0.04107419028878212,-0.0014877363573759794
1772455352842318300,2.473318359375,0.03869270905852318,-0.01610465906560421,-0.05492300167679787
1772455352852335000,2.483335205078125,0.022789619863033295,-0.002620998304337263,-0.08021875470876694
1772455352862353400,2.493353515625,0.006204518955200911,0.004384713247418404,-0.08850917220115662
1772455352872371200,2.50337109375,-0.013281486928462982,0.01730944775044918,-0.08068346232175827
1772455352882389200,2.51338916015625,-0.03633514419198036,0.015577060170471668,-0.067711740732193
1772455352892407300,2.5234072265625,-0.04609495401382446,0.0004998843651264906,-0.04695306718349457
1772455352902425300,2.53342529296875,-0.04842548817396164,-0.004854401107877493,-0.0174843929708004
1772455352912443400,2.543443359375,-0.04007219895720482,-0.01860038749873638,0.00743212690576911
1772455352922460400,2.55346044921875,-0.025531338527798653,-0.044091369956731796,0.030118530616164207
1772455352932478200,2.563478271484375,-0.014364790171384811,-0.06245303153991699,0.048322830349206924
1772455352942496300,2.573496337890625,-0.006531102117151022,-0.07095517963171005,0.05972488969564438
1772455352952514300,2.583514404296875,-0.007040788885205984,-0.05814937874674797,0.06530754268169403
1772455352962532400,2.593532470703125,-0.02466638758778572,-0.028617586940526962,0.061425719410181046
1772455352972550400,2.60355029296875,-0.05188164487481117,0.007115770131349564,0.04496939107775688
1772455352982568200,2.613568115234375,-0.0734066441655159,0.026992538943886757,0.016462383791804314
1772455352992586500,2.62358642578125,-0.09187615662813187,0.0251176580786705,-0.014416835270822048
1772455353002603300,2.633603271484375,-0.09876761585474014,0.008949873968958855,-0.03612266480922699
1772455353012621300,2.643621337890625,-0.09545324742794037,-0.002277043182402849,-0.04978988692164421
1772455353022639400,2.653639404296875,-0.08478249609470367,-0.017479166388511658,-0.06025104969739914
1772455353032657400,2.663657470703125,-0.07443523406982422,-0.039814598858356476,-0.06420637667179108
1772455353042675200,2.67367529296875,-0.06683270633220673,-0.041002366691827774,-0.06222950667142868
1772455353052693200,2.683693359375,-0.06593391299247742,-0.009040357545018196,-0.052237845957279205
1772455353062711300,2.693711181640625,-0.06041637063026428,0.04020947962999344,-0.025688793510198593
1772455353072729300,2.703729248046875,-0.06179489195346832,0.08794845640659332,0.013137148693203926
1772455353082747100,2.7137470703125,-0.06611906737089157,0.12180255353450775,0.056142669171094894
1772455353092764400,2.723764404296875,-0.07304776459932327,0.1348794549703598,0.10493351519107819
1772455353102782200,2.7337822265625,-0.07202164828777313,0.12748093903064728,0.14678509533405304
1772455353112800300,2.74380029296875,-0.06378728151321411,0.09865466505289078,0.1738799512386322
1772455353122818300,2.753818359375,-0.044022105634212494,0.061140839010477066,0.17728586494922638
1772455353132836400,2.76383642578125,-0.019618377089500427,0.03697384521365166,0.15784946084022522
1772455353142854100,2.773854248046875,0.01755322702229023,0.030828868970274925,0.12542840838432312
1772455353152872400,2.78387255859375,0.05399947240948677,0.0322917103767395,0.08443677425384521
1772455353162890200,2.79389013671875,0.08533608913421631,0.031222186982631683,0.046221207827329636
1772455353172907300,2.8039072265625,0.11283797770738602,0.03187653794884682,0.018635252490639687
1772455353182925300,2.81392529296875,0.13419252634048462,0.03534983471035957,0.012718508020043373
1772455353192943400,2.823943359375,0.1433211863040924,0.053711846470832825,0.029905349016189575
1772455353202961200,2.833961181640625,0.1360102891921997,0.07083916664123535,0.05791567638516426
1772455353212979200,2.843979248046875,0.11287393420934677,0.09505471587181091,0.08895948529243469
1772455353222997200,2.853997314453125,0.08801119029521942,0.11858241260051727,0.11928436905145645
1772455353233015300,2.864015380859375,0.07935792207717896,0.12332874536514282,0.14362205564975739
1772455353243033300,2.874033447265625,0.08388982713222504,0.10579608380794525,0.1544206440448761
1772455353253050400,2.88405029296875,0.09138274192810059,0.0933600440621376,0.15204684436321259
1772455353263068400,2.894068359375,0.09517188370227814,0.08422540128231049,0.14138168096542358
1772455353273086200,2.904086181640625,0.09559056907892227,0.07154185324907303,0.11586219072341919
1772455353283104500,2.9141044921875,0.09770804643630981,0.05991768836975098,0.0722595825791359
1772455353293122300,2.924122314453125,0.10306742042303085,0.04846944287419319,0.029038753360509872
1772455353303140400,2.934140380859375,0.11744982749223709,0.037112925201654434,-0.013956916518509388
1772455353313158400,2.944158447265625,0.13143455982208252,0.022285165265202522,-0.048695582896471024
1772455353323176400,2.954176513671875,0.1358005404472351,0.014202472753822803,-0.07779354602098465
1772455353333193200,2.964193115234375,0.12808480858802795,0.015252398326992989,-0.0926208347082138
1772455353343211500,2.97421142578125,0.11829982697963715,0.012363402172923088,-0.1060871109366417
1772455353353229300,2.984229248046875,0.11762908846139908,-0.0033009187318384647,-0.11102286726236343
1772455353363247400,2.994247314453125,0.12150797992944717,0.006978084333240986,-0.10041709244251251
1772455353373265200,3.00426513671875,0.1325918585062027,0.04097866266965866,-0.07872579991817474
1772455353383283500,3.014283447265625,0.15098045766353607,0.06185838207602501,-0.04400350898504257
1772455353393301200,3.02430126953125,0.17039306461811066,0.07542786747217178,0.0017952779307961464
1772455353403319300,3.0343193359375,0.18158473074436188,0.10010365396738052,0.04811030998826027
1772455353413336300,3.04433642578125,0.19847902655601501,0.12330661714076996,0.09220293909311295
1772455353423354400,3.054354248046875,0.2203611582517624,0.12376894056797028,0.12400587648153305
1772455353433372200,3.0643720703125,0.253661572933197,0.08790256083011627,0.14045968651771545
1772455353443390500,3.074390380859375,0.2832900583744049,-0.0015908409841358662,0.13674324750900269
1772455353453408300,3.084408203125,0.3043603301048279,-0.12194453924894333,0.11206971853971481
1772455353463426300,3.09442626953125,0.29841455817222595,-0.23268304765224457,0.07565019279718399
1772455353473444000,3.104444091796875,0.2556840479373932,-0.29989367723464966,0.020268702879548073
1772455353483462400,3.11446240234375,0.18000100553035736,-0.33861204981803894,-0.05410459637641907
1772455353493479200,3.124479248046875,0.09000879526138306,-0.3113880157470703,-0.14573384821414948
1772455353503497500,3.13449755859375,-0.0005368166603147984,-0.21829165518283844,-0.24291126430034637
1772455353513515300,3.144515380859375,-0.06650393456220627,-0.08411729335784912,-0.32590922713279724
1772455353523533300,3.154533203125,-0.08490823954343796,0.069344162940979,-0.37952131032943726
1772455353533551400,3.16455126953125,-0.05314008146524429,0.20164337754249573,-0.3840131163597107
1772455353543569400,3.1745693359375,0.017566844820976257,0.31300267577171326,-0.3204205632209778
1772455353553587500,3.18458740234375,0.10132580250501633,0.37460169196128845,-0.20288795232772827
1772455353563605200,3.194605224609375,0.18643032014369965,0.371834933757782,-0.04612576961517334
1772455353573623300,3.204623291015625,0.27277714014053345,0.3101809322834015,0.1323716789484024
1772455353583640300,3.214640380859375,0.3556336462497711,0.20786361396312714,0.31486451625823975
1772455353593658400,3.224658447265625,0.42471903562545776,0.08579947799444199,0.4779648780822754
1772455353603676400,3.234676513671875,0.46531227231025696,-0.04105381295084953,0.6105762124061584
1772455353613694500,3.244694580078125,0.4491463303565979,-0.1427386850118637,0.6844202280044556
1772455353623712300,3.254712158203125,0.38202667236328125,-0.22491425275802612,0.6909018158912659
1772455353633730300,3.264730224609375,0.2758534550666809,-0.2804015278816223,0.6234273910522461
1772455353643748400,3.274748291015625,0.15768474340438843,-0.30418142676353455,0.48413848876953125
1772455353653766400,3.284766357421875,0.05689544603228569,-0.30703434348106384,0.29086676239967346
1772455353663783400,3.294783447265625,-0.008604735136032104,-0.2888641357421875,0.06920015066862106
1772455353673801500,3.304801513671875,-0.04328686743974686,-0.24554096162319183,-0.15196138620376587
1772455353683819300,3.3148193359375,-0.06511173397302628,-0.16769596934318542,-0.3449971377849579
1772455353693837300,3.32483740234375,-0.0942826047539711,-0.06866978108882904,-0.499011367559433
1772455353703855400,3.33485546875,-0.1319575309753418,0.059221066534519196,-0.5936456918716431
1772455353713873400,3.344873291015625,-0.16340024769306183,0.17921985685825348,-0.6037630438804626
1772455353723891200,3.35489111328125,-0.1756928712129593,0.27778902649879456,-0.5399830341339111
1772455353733909200,3.3649091796875,-0.16246894001960754,0.33369410037994385,-0.4077770411968231
1772455353743927300,3.37492724609375,-0.12884652614593506,0.3340648114681244,-0.24138621985912323
1772455353753944300,3.3849443359375,-0.07588300853967667,0.2813069820404053,-0.05977301299571991
1772455353763962400,3.39496240234375,-0.021523367613554,0.1859210878610611,0.11718472093343735
1772455353773980400,3.40498046875,0.027816347777843475,0.08540162444114685,0.26204243302345276
1772455353783998200,3.414998291015625,0.06982504576444626,-0.0041543529368937016,0.3709273636341095
1772455353794016300,3.425016357421875,0.10476653277873993,-0.03126230835914612,0.43767550587654114
1772455353804034300,3.435034423828125,0.11869166791439056,-0.024425705894827843,0.4493454694747925
1772455353814052400,3.44505224609375,0.11399183422327042,-0.00905701331794262,0.41304832696914673
1772455353824070400,3.4550703125,0.09716545045375824,0.009927064180374146,0.3364483714103699
1772455353834087400,3.46508740234375,0.07100736349821091,0.029954396188259125,0.23247429728507996
1772455353844105200,3.475105224609375,0.03943292796611786,0.046859610825777054,0.1094604879617691
1772455353854123300,3.485123291015625,0.014956793747842312,0.033887915313243866,-0.015756286680698395
1772455353864141300,3.495141357421875,0.00037092703860253096,0.020702339708805084,-0.12462897598743439
1772455353874159400,3.505159423828125,-0.018813058733940125,0.01290200650691986,-0.2057749629020691
1772455353884177400,3.515177490234375,-0.047149624675512314,0.005968733690679073,-0.2564266622066498
1772455353894195200,3.5251953125,-0.08266085386276245,0.005740871652960777,-0.28237012028694153
1772455353904213500,3.535213623046875,-0.11964363604784012,-0.00046349409967660904,-0.2861190438270569
1772455353914230300,3.545230224609375,-0.1400645226240158,-0.010462487116456032,-0.2697322368621826
1772455353924248300,3.555248291015625,-0.13826316595077515,0.008977523073554039,-0.2341097891330719
1772455353934266400,3.565266357421875,-0.11600890755653381,0.03798038139939308,-0.176605224609375
1772455353944284400,3.575284423828125,-0.08603156358003616,0.06574490666389465,-0.10650309920310974
1772455353954302200,3.58530224609375,-0.06243031099438667,0.08627022802829742,-0.02957170456647873
1772455353964320500,3.595320556640625,-0.04991425201296806,0.10276184976100922,0.03968672826886177
1772455353974338300,3.60533837890625,-0.035590481013059616,0.10299330204725266,0.09169813245534897
1772455353984356400,3.6153564453125,-0.02268640138208866,0.08022673428058624,0.12244219332933426
1772455353994373400,3.625373291015625,-0.004447274375706911,0.03667641803622246,0.13271574676036835
1772455354004391400,3.635391357421875,0.009419539012014866,-0.027790455147624016,0.11738499253988266
1772455354014409200,3.6454091796875,0.018651217222213745,-0.09465331584215164,0.07900990545749664
1772455354024427500,3.655427490234375,0.020565496757626534,-0.13822981715202332,0.020346324890851974
1772455354034445300,3.6654453125,0.017969010397791862,-0.14710180461406708,-0.046026311814785004
1772455354044463400,3.67546337890625,0.015116231516003609,-0.1317870318889618,-0.12142759561538696
1772455354054481200,3.685481201171875,0.011323720216751099,-0.10324693471193314,-0.1846124231815338
1772455354064499500,3.69549951171875,0.006427498534321785,-0.07740761339664459,-0.22650979459285736
1772455354074516200,3.70551611328125,0.0024679957423359156,-0.06532116234302521,-0.24082136154174805
1772455354084534500,3.715534423828125,-0.0011126241879537702,-0.07903431355953217,-0.2323533147573471
1772455354094552300,3.72555224609375,-0.0073408205062150955,-0.10096485912799835,-0.20493140816688538
1772455354104570400,3.7355703125,-0.017278138548135757,-0.14088964462280273,-0.17234711349010468
1772455354114588200,3.745588134765625,-0.020820215344429016,-0.17425185441970825,-0.13568827509880066
1772455354124606500,3.7556064453125,-0.02392439916729927,-0.18113932013511658,-0.10007328540086746
1772455354134624300,3.765624267578125,-0.02748068794608116,-0.17133377492427826,-0.07105948776006699
1772455354144642300,3.775642333984375,-0.03940445929765701,-0.15429966151714325,-0.055206749588251114
1772455354154660400,3.785660400390625,-0.05738522857427597,-0.13529528677463531,-0.058122385293245316
1772455354164677400,3.795677490234375,-0.0732952207326889,-0.1216316670179367,-0.06425324827432632
1772455354174695200,3.805695068359375,-0.09068435430526733,-0.0939105674624443,-0.07495913654565811
1772455354184713500,3.81571337890625,-0.09881072491407394,-0.06257181614637375,-0.08651991188526154
1772455354194731300,3.825731201171875,-0.10552097111940384,-0.03731885179877281,-0.09157462418079376
1772455354204749300,3.835749267578125,-0.09989158064126968,-0.031124074012041092,-0.07738370448350906
1772455354214767000,3.84576708984375,-0.09822339564561844,-0.02387141063809395,-0.04453519359230995
1772455354224785400,3.855785400390625,-0.09901488572359085,-0.025309784337878227,-0.0031528661493211985
1772455354234802700,3.865802734375,-0.10570945590734482,-0.05823260918259621,0.04501572996377945
1772455354244819700,3.87581982421875,-0.11589072644710541,-0.08532095700502396,0.08746039867401123
1772455354254837800,3.885837646484375,-0.12729518115520477,-0.08950500935316086,0.12430454045534134
1772455354264855600,3.89585546875,-0.1408645212650299,-0.0916786789894104,0.1415005624294281
1772455354274873900,3.905873779296875,-0.1501697152853012,-0.09454280883073807,0.1434662640094757
1772455354284891600,3.9158916015625,-0.1613941490650177,-0.08707930147647858,0.1262659728527069
1772455354294909700,3.92590966796875,-0.16792473196983337,-0.0868150144815445,0.09715202450752258
1772455354304927500,3.935927490234375,-0.17816059291362762,-0.09945997595787048,0.06137138232588768
1772455354314945800,3.94594580078125,-0.19392792880535126,-0.10970044881105423,0.019638746976852417
1772455354324963600,3.955963623046875,-0.21881543099880219,-0.11781217157840729,-0.03260209038853645
1772455354334980600,3.965980712890625,-0.25011804699897766,-0.12249193340539932,-0.08678705245256424
1772455354344998700,3.97599853515625,-0.2838136851787567,-0.12332150340080261,-0.13786567747592926
1772455354355016700,3.9860166015625,-0.319141685962677,-0.11369439959526062,-0.18140849471092224
1772455354365034500,3.996034423828125,-0.354665070772171,-0.10211284458637238,-0.21700617671012878
1772455354375052800,4.006052734375,-0.37562164664268494,-0.09884581714868546,-0.23603671789169312
1772455354385070600,4.016070556640625,-0.3866979777812958,-0.10096569359302521,-0.2413467913866043
1772455354395088600,4.026088623046875,-0.38390642404556274,-0.10177217423915863,-0.2285977154970169
1772455354405106700,4.036106689453125,-0.3655170500278473,-0.1002882644534111,-0.20184732973575592
1772455354415123700,4.046123779296875,-0.3321916460990906,-0.0714511051774025,-0.1591053307056427
1772455354425141500,4.0561416015625,-0.2952764928340912,0.0008545203600078821,-0.09931468963623047
1772455354435159800,4.066159912109375,-0.2551657557487488,0.07765031605958939,-0.036939606070518494
1772455354445177600,4.076177490234375,-0.21211576461791992,0.13186906278133392,0.03310792148113251
1772455354455195600,4.086195556640625,-0.15973833203315735,0.17458660900592804,0.12278055399656296
1772455354465213700,4.096213623046875,-0.10343243926763535,0.1968064308166504,0.21213281154632568
1772455354475231700,4.106231689453125,-0.057293444871902466,0.1934756189584732,0.2994261682033539
1772455354485249800,4.116249755859375,-0.020718920975923538,0.18270686268806458,0.3811788260936737
1772455354495267600,4.126267578125,0.0024891002103686333,0.18544453382492065,0.4604443311691284
1772455354505284900,4.136284912109375,0.013485291972756386,0.20322459936141968,0.5280463099479675
1772455354515302700,4.146302734375,0.011175957508385181,0.2341364026069641,0.5703118443489075
1772455354525320700,4.15632080078125,0.010979149490594864,0.2426702380180359,0.5817256569862366
1772455354535338800,4.1663388671875,0.014674840494990349,0.24382184445858002,0.5757104754447937
1772455354545356800,4.176356689453125,0.012022598646581173,0.240666002035141,0.5489624738693237
1772455354555374600,4.18637451171875,0.012464821338653564,0.223879873752594,0.503019392490387
1772455354565392600,4.196392578125,0.005200516432523727,0.17657388746738434,0.4339154064655304
1772455354575410700,4.20641064453125,-0.011755349114537239,0.10474728792905807,0.33757567405700684
1772455354585427700,4.216427734375,-0.032007090747356415,0.0027745815459638834,0.21538347005844116
1772455354595445800,4.22644580078125,-0.04946697875857353,-0.0952032059431076,0.07203015685081482
1772455354605463800,4.2364638671875,-0.0654347613453865,-0.1678425371646881,-0.07768769562244415
1772455354615481600,4.246481689453125,-0.07202178239822388,-0.18875208497047424,-0.22268123924732208
1772455354625499600,4.256499755859375,-0.07775449752807617,-0.1685916930437088,-0.353726863861084
1772455354635517700,4.266517578125,-0.08237441629171371,-0.13178116083145142,-0.45977941155433655
1772455354645535700,4.27653564453125,-0.08537233620882034,-0.07769342511892319,-0.516271710395813
1772455354655553500,4.286553466796875,-0.08038383722305298,-0.02017744816839695,-0.5192529559135437
1772455354665570800,4.29657080078125,-0.06236329302191734,0.04533231630921364,-0.4621888995170593
1772455354675588600,4.306588623046875,-0.029099123552441597,0.10996326059103012,-0.3514463007450104
1772455354685606700,4.316606689453125,0.019546443596482277,0.16279983520507812,-0.19361695647239685
1772455354695624700,4.326624755859375,0.07915372401475906,0.20944570004940033,-0.0074509563855826855
1772455354705642800,4.336642822265625,0.13825005292892456,0.24764101207256317,0.1835823804140091
1772455354715660500,4.34666064453125,0.1967972069978714,0.24769099056720734,0.352020263671875
1772455354725678600,4.3566787109375,0.24560150504112244,0.20680534839630127,0.4886625409126282
1772455354735696600,4.366696533203125,0.27880966663360596,0.17316977679729462,0.58839350938797
1772455354745714700,4.376714599609375,0.29171478748321533,0.14268216490745544,0.64188152551651
1772455354755731500,4.3867314453125,0.2854413688182831,0.10331312566995621,0.6457204222679138
1772455354765749800,4.396749755859375,0.26031017303466797,0.062455181032419205,0.6013345718383789
1772455354775767600,4.406767578125,0.2188802808523178,0.020493313670158386,0.5084861516952515
1772455354785785600,4.41678564453125,0.1736680567264557,-0.007316744886338711,0.3821820318698883
1772455354795804000,4.426803955078125,0.12874992191791534,-0.019438516348600388,0.23543627560138702
1772455354805821700,4.43682177734375,0.09071732312440872,-0.02786875329911709,0.07392939180135727
1772455354815839700,4.44683984375,0.051036328077316284,-0.03493289276957512,-0.07955923676490784
1772455354825857500,4.456857421875,0.01328815333545208,-0.030044129118323326,-0.21109676361083984
1772455354835875800,4.466875732421875,-0.035482048988342285,-0.02032598666846752,-0.31744128465652466
1772455354845892600,4.476892578125,-0.08243144303560257,-0.011855537071824074,-0.3846898376941681
1772455354855910700,4.48691064453125,-0.12165932357311249,-0.005635708104819059,-0.42425736784935
1772455354865928700,4.4969287109375,-0.14181838929653168,-0.0024351212196052074,-0.43288254737854004
1772455354875946800,4.50694677734375,-0.14023594558238983,0.019711628556251526,-0.4089527130126953
1772455354885964500,4.516964599609375,-0.1141904965043068,0.06346310675144196,-0.34632739424705505
1772455354895982800,4.52698291015625,-0.07439576089382172,0.10888557881116867,-0.26023006439208984
1772455354906000600,4.537000732421875,-0.025378942489624023,0.1504945307970047,-0.14863991737365723
1772455354916018700,4.547018798828125,0.013108945451676846,0.2024811953306198,-0.029078496620059013
1772455354926035700,4.55703564453125,0.039012711495161057,0.26008668541908264,0.09077280014753342
1772455354936053800,4.5670537109375,0.049799323081970215,0.29230478405952454,0.19652628898620605
1772455354946071600,4.577071533203125,0.061893004924058914,0.2810782194137573,0.2729851007461548
1772455354956089900,4.58708984375,0.07204829901456833,0.23310452699661255,0.32103613018989563
1772455354966107600,4.597107666015625,0.07715331017971039,0.16577847301959991,0.3207586407661438
1772455354976125700,4.607125732421875,0.07486175745725632,0.08121651411056519,0.2758063077926636
1772455354986143500,4.6171435546875,0.07915636897087097,-0.015159019269049168,0.18526577949523926
1772455354996161800,4.627161865234375,0.10030830651521683,-0.0893283411860466,0.06362016499042511
1772455355006178600,4.637178466796875,0.13521409034729004,-0.1161266639828682,-0.06674715876579285
1772455355016196600,4.647196533203125,0.17276720702648163,-0.07358518242835999,-0.1859423965215683
1772455355026214700,4.657214599609375,0.18585851788520813,-0.006839973386377096,-0.28017544746398926
1772455355036232700,4.667232666015625,0.1669440120458603,0.06314989924430847,-0.3294566869735718
1772455355046250500,4.67725048828125,0.13255354762077332,0.13198435306549072,-0.32826492190361023
1772455355056268800,4.687268798828125,0.09245642274618149,0.190388023853302,-0.26584774255752563
1772455355066286600,4.69728662109375,0.06743122637271881,0.24040858447551727,-0.15888535976409912
1772455355076304600,4.7073046875,0.0679100751876831,0.2653398811817169,-0.02995879575610161
1772455355086322700,4.71732275390625,0.08402460068464279,0.23346289992332458,0.10447358340024948
1772455355096339700,4.727339599609375,0.10611540824174881,0.1343073844909668,0.20202544331550598
1772455355106357500,4.737357421875,0.13548235595226288,-0.01802516169846058,0.25743064284324646
1772455355116375800,4.747375732421875,0.16891472041606903,-0.15431903302669525,0.2644699215888977
1772455355126393600,4.7573935546875,0.1838529258966446,-0.2173624485731125,0.22279463708400726
1772455355136411600,4.76741162109375,0.16475631296634674,-0.21252459287643433,0.13374212384223938
1772455355146429700,4.7774296875,0.0978262796998024,-0.1887074112892151,0.0012053900863975286
1772455355156447700,4.78744775390625,0.006511068902909756,-0.1622096747159958,-0.1404844969511032
1772455355166465800,4.7974658203125,-0.0824504941701889,-0.13061366975307465,-0.2696518301963806
1772455355176482600,4.807482666015625,-0.1443515121936798,-0.07439812272787094,-0.3648906946182251
1772455355186500900,4.8175009765625,-0.16691061854362488,0.007538286969065666,-0.4226754307746887
1772455355196518700,4.8275185546875,-0.1582181304693222,0.07830420136451721,-0.4378567934036255
1772455355206536700,4.83753662109375,-0.1287641078233719,0.14242352545261383,-0.40557634830474854
1772455355216554800,4.8475546875,-0.08502744138240814,0.20893524587154388,-0.3251188099384308
1772455355226572800,4.85757275390625,-0.006697218865156174,0.25797122716903687,-0.18962275981903076
1772455355236591400,4.86759130859375,0.10356543958187103,0.29389479756355286,-0.002235432853922248
1772455355246609400,4.877609375,0.22528629004955292,0.31665629148483276,0.21098177134990692
1772455355256627200,4.887627197265625,0.3319457173347473,0.31080731749534607,0.4333111047744751
1772455355266644500,4.89764453125,0.40910816192626953,0.2693144679069519,0.646034300327301
1772455355276662300,4.907662353515625,0.45577889680862427,0.21196572482585907,0.8235248923301697
1772455355286680600,4.9176806640625,0.4710582494735718,0.16784034669399261,0.9476127624511719
1772455355296698400,4.927698486328125,0.45094963908195496,0.15634454786777496,1.0093400478363037
1772455355306716400,4.93771630859375,0.4357296824455261,0.16402111947536469,0.9915457367897034
1772455355316734200,4.947734130859375,0.4080057442188263,0.12459750473499298,0.9040301442146301
1772455355326752500,4.95775244140625,0.3909119963645935,0.029995892196893692,0.7602900266647339
1772455355336770600,4.9677705078125,0.37946948409080505,-0.06769499182701111,0.5796641707420349
1772455355346788400,4.977788330078125,0.3710173964500427,-0.15840545296669006,0.3746250569820404
1772455355356805400,4.987805419921875,0.3673545718193054,-0.2520521581172943,0.16034643352031708
1772455355366823400,4.997823486328125,0.3770245313644409,-0.3456486761569977,-0.04130066931247711
1772455355376841200,5.00784130859375,0.380638986825943,-0.40394726395606995,-0.21740417182445526
1772455355386859500,5.017859619140625,0.36723771691322327,-0.4184010326862335,-0.35307547450065613
1772455355396877600,5.027877685546875,0.3123003840446472,-0.41582268476486206,-0.4538152515888214
1772455355406895400,5.037895263671875,0.20352809131145477,-0.4173683822154999,-0.5237967371940613
1772455355416913400,5.047913330078125,0.06230810657143593,-0.4204486906528473,-0.5558220148086548
1772455355426931500,5.057931396484375,-0.08687152713537216,-0.43188485503196716,-0.5713328123092651
1772455355436948500,5.067948486328125,-0.2166578620672226,-0.4117269515991211,-0.5562035441398621
1772455355446966500,5.077966552734375,-0.31579166650772095,-0.34950485825538635,-0.5358700752258301
1772455355456984600,5.087984619140625,-0.38248807191848755,-0.2441617250442505,-0.5060122609138489
1772455355467002400,5.09800244140625,-0.41624683141708374,-0.0888669565320015,-0.47187745571136475
1772455355477020400,5.1080205078125,-0.41020601987838745,0.08054251968860626,-0.42236921191215515
1772455355487038500,5.11803857421875,-0.35541093349456787,0.221014142036438,-0.3523656129837036
1772455355497056500,5.128056396484375,-0.25899213552474976,0.30822741985321045,-0.2530224919319153
1772455355507074300,5.13807421875,-0.14519022405147552,0.3261566162109375,-0.12155688554048538
1772455355517092400,5.14809228515625,-0.0485948771238327,0.29573768377304077,0.01943272352218628
1772455355527109400,5.158109375,0.014530294574797153,0.24742475152015686,0.16816094517707825
1772455355537127400,5.16812744140625,0.03402195870876312,0.18776771426200867,0.2937319278717041
1772455355547145500,5.1781455078125,0.013453301042318344,0.09842318296432495,0.3725591003894806
1772455355557163500,5.18816357421875,-0.02451307512819767,0.021947618573904037,0.3982303738594055
1772455355567181300,5.198181396484375,-0.06141543388366699,-0.02207922749221325,0.37266936898231506
1772455355577199400,5.208199462890625,-0.07978213578462601,-0.0375174917280674,0.29391130805015564
1772455355587217400,5.218217529296875,-0.0778939500451088,-0.026201985776424408,0.1835741251707077
1772455355597235500,5.2282353515625,-0.06416113674640656,-0.011892804875969887,0.04457668960094452
1772455355607253200,5.238253173828125,-0.05144241452217102,-0.004211183171719313,-0.09290260821580887
1772455355617270500,5.2482705078125,-0.03941308706998825,-0.011246389709413052,-0.21580375730991364
1772455355627288300,5.258288330078125,-0.035825010389089584,-0.04002663865685463,-0.3028196394443512
1772455355637306400,5.268306396484375,-0.040248192846775055,-0.0920352041721344,-0.34638306498527527
1772455355647324400,5.278324462890625,-0.05369183048605919,-0.1508500576019287,-0.3492814004421234
1772455355657342500,5.288342529296875,-0.07758201658725739,-0.19603152573108673,-0.3149355351924896
1772455355667360300,5.2983603515625,-0.1186724603176117,-0.19091719388961792,-0.2685965299606323
1772455355677378300,5.30837841796875,-0.1657203882932663,-0.15345343947410583,-0.21166880428791046
1772455355687396600,5.318396728515625,-0.20663027465343475,-0.11363572627305984,-0.1558486819267273
1772455355697413400,5.328413330078125,-0.23220084607601166,-0.07340683043003082,-0.11692218482494354
1772455355707431400,5.338431396484375,-0.2434801310300827,-0.05427787825465202,-0.08866524696350098
1772455355717449500,5.348449462890625,-0.24012869596481323,-0.07276564091444016,-0.08041797578334808
1772455355727467500,5.358467529296875,-0.22320884466171265,-0.12204717099666595,-0.08202652633190155
1772455355737485300,5.3684853515625,-0.20774497091770172,-0.1703745722770691,-0.09874571859836578
1772455355747503600,5.378503662109375,-0.19457697868347168,-0.1944974809885025,-0.11918841302394867
1772455355757521400,5.388521484375,-0.18652138113975525,-0.18148036301136017,-0.14234617352485657
1772455355767539500,5.39853955078125,-0.1924636960029602,-0.13799865543842316,-0.15866762399673462
1772455355777557200,5.40855712890625,-0.19899822771549225,-0.11121665686368942,-0.16708123683929443
1772455355787574500,5.418574462890625,-0.21005487442016602,-0.10854151099920273,-0.1602688729763031
1772455355797592300,5.42859228515625,-0.20911338925361633,-0.11835422366857529,-0.13482703268527985
1772455355807610600,5.438610595703125,-0.2019396424293518,-0.12430825084447861,-0.08423442393541336
1772455355817628400,5.44862841796875,-0.1859675943851471,-0.11057858914136887,-0.019316406920552254
1772455355827646500,5.458646484375,-0.17232449352741241,-0.0899801030755043,0.05124244466423988
1772455355837664300,5.468664306640625,-0.15590615570545197,-0.06617791205644608,0.12227894365787506
1772455355847682600,5.4786826171875,-0.1337241530418396,-0.03587566688656807,0.1919988989830017
1772455355857700400,5.488700439453125,-0.12337131053209305,-0.045982759445905685,0.2452051341533661
1772455355867718400,5.498718505859375,-0.13452276587486267,-0.14104509353637695,0.2626429796218872
1772455355877735400,5.5087353515625,-0.17253799736499786,-0.25987446308135986,0.23851993680000305
1772455355887753500,5.51875341796875,-0.21863918006420135,-0.33311325311660767,0.16692803800106049
1772455355897771300,5.528771240234375,-0.2710842788219452,-0.31780320405960083,0.05720819532871246
1772455355907789600,5.53878955078125,-0.32686471939086914,-0.2456168681383133,-0.07422839105129242
1772455355917807400,5.548807373046875,-0.36982032656669617,-0.17018969357013702,-0.2046380639076233
1772455355927825400,5.558825439453125,-0.39978593587875366,-0.11693471670150757,-0.31563541293144226
1772455355937843200,5.56884326171875,-0.4191236197948456,-0.07897645235061646,-0.3861047923564911
1772455355947861500,5.578861572265625,-0.4185691773891449,-0.042804863303899765,-0.41293373703956604
1772455355957878300,5.588878173828125,-0.405579149723053,-0.005528446286916733,-0.38728660345077515
1772455355967896600,5.598896484375,-0.3848344683647156,0.07013782113790512,-0.31289464235305786
1772455355977914400,5.608914306640625,-0.3617589473724365,0.15552641451358795,-0.18949970602989197
1772455355987932400,5.618932373046875,-0.3320370018482208,0.23648785054683685,-0.037854794412851334
1772455355997950200,5.6289501953125,-0.29585349559783936,0.2931763827800751,0.12960343062877655
1772455356007968500,5.638968505859375,-0.2565564215183258,0.3120371401309967,0.2846044600009918
1772455356017986600,5.648986572265625,-0.2254505753517151,0.301443487405777,0.410820871591568
1772455356028004400,5.65900439453125,-0.1896723359823227,0.27635225653648376,0.4980846643447876
1772455356038022400,5.6690224609375,-0.16278642416000366,0.23184454441070557,0.5354601144790649
1772455356048039400,5.679039306640625,-0.13953036069869995,0.16395391523838043,0.5216606855392456
1772455356058057200,5.68905712890625,-0.11820444464683533,0.09318915754556656,0.45605385303497314
1772455356068075500,5.699075439453125,-0.09917323291301727,0.016024330630898476,0.3625827431678772
1772455356078093600,5.709093505859375,-0.08424098044633865,-0.046433255076408386,0.2500191926956177
1772455356088111400,5.719111328125,-0.08430889248847961,-0.05873359739780426,0.14299288392066956
1772455356098129400,5.72912939453125,-0.10403118282556534,-0.011956937611103058,0.05198972672224045
1772455356108147500,5.7391474609375,-0.1498205065727234,0.06678926944732666,-0.01839095912873745
1772455356118165500,5.74916552734375,-0.20511063933372498,0.14504852890968323,-0.063623808324337
1772455356128183300,5.759183349609375,-0.268654465675354,0.1986885964870453,-0.08646121621131897
1772455356138200600,5.76920068359375,-0.31143656373023987,0.20193250477313995,-0.084256112575531
1772455356148218400,5.77921826171875,-0.3220883905887604,0.15207679569721222,-0.0793047621846199
1772455356158236400,5.789236328125,-0.2973812520503998,0.06088868901133537,-0.07504025101661682
1772455356168254500,5.79925439453125,-0.235141322016716,-0.04092714935541153,-0.07170969992876053
1772455356178272500,5.8092724609375,-0.149495467543602,-0.11397033929824829,-0.07246151566505432
1772455356188290300,5.819290283203125,-0.07041582465171814,-0.1305471807718277,-0.08004087209701538
1772455356198308400,5.829308349609375,-0.010717453435063362,-0.09169661998748779,-0.08855179697275162
1772455356208326400,5.839326416015625,0.026764407753944397,-0.012326433323323727,-0.08523669093847275
1772455356218344400,5.849344482421875,0.051262784749269485,0.06949840486049652,-0.05886301398277283
1772455356228361500,5.859361572265625,0.05983177199959755,0.14008763432502747,-0.009250452741980553
1772455356238379000,5.86937890625,0.06450103968381882,0.18631576001644135,0.06274797767400742
1772455356248396800,5.879396728515625,0.08004564791917801,0.18877971172332764,0.13988004624843597
1772455356258415000,5.8894150390625,0.107016421854496,0.1484830379486084,0.2124268114566803
1772455356268433000,5.899432861328125,0.14131101965904236,0.09862786531448364,0.2690328359603882
1772455356278451000,5.909450927734375,0.18064218759536743,0.05095914378762245,0.3080579936504364
1772455356288468700,5.91946875,0.20236451923847198,0.0034992166329175234,0.3138061463832855
1772455356298487000,5.929487060546875,0.20745624601840973,-0.05297136306762695,0.2878711223602295
1772455356308503800,5.93950390625,0.1846848875284195,-0.09483838081359863,0.22594355046749115
1772455356318521900,5.94952197265625,0.1414671391248703,-0.10766365379095078,0.13702741265296936
1772455356328540000,5.959539794921875,0.08606796711683273,-0.09583523869514465,0.030379638075828552
1772455356338558000,5.969557861328125,0.03214215114712715,-0.0723072737455368,-0.08549343049526215
1772455356348575700,5.97957568359375,-0.012417604215443134,-0.03504070267081261,-0.18776866793632507
1772455356358594000,5.989593994140625,-0.043992042541503906,0.0011852129828184843,-0.25513625144958496
1772455356368611800,5.99961181640625,-0.0660337582230568,0.027777498587965965,-0.29664039611816406
1772455356378628900,6.00962890625,-0.08131018280982971,0.04001551866531372,-0.30697399377822876
1772455356388647000,6.01964697265625,-0.08702521026134491,0.028494950383901596,-0.2929993271827698
1772455356398665000,6.0296650390625,-0.0792117640376091,0.01458232756704092,-0.26013460755348206
1772455356408682800,6.039682861328125,-0.06392928957939148,-0.002930850489065051,-0.21481800079345703
1772455356418701000,6.049701171875,-0.040865521878004074,-0.01694520190358162,-0.1741083860397339
1772455356428718800,6.05971875,-0.010871936567127705,-0.0058829644694924355,-0.13558442890644073
1772455356438737000,6.06973681640625,0.022272156551480293,0.024532098323106766,-0.10386351495981216
1772455356448755000,6.0797548828125,0.047758158296346664,0.06826277077198029,-0.08424720168113708
1772455356458773000,6.08977294921875,0.05434229224920273,0.10128170251846313,-0.0761362835764885
1772455356468789800,6.099789794921875,0.054442960768938065,0.10791590064764023,-0.08196380734443665
1772455356478807800,6.109807861328125,0.05206448957324028,0.0980299860239029,-0.08585255593061447
1772455356488826000,6.119826171875,0.06286714226007462,0.08318725228309631,-0.09537841379642487
1772455356498844000,6.129843994140625,0.08687368035316467,0.048847660422325134,-0.1121363490819931
1772455356508862000,6.139862060546875,0.119422048330307,0.003410767065361142,-0.12978433072566986
1772455356518880000,6.1498798828125,0.15643465518951416,-0.0338045135140419,-0.1420428603887558
1772455356528898000,6.15989794921875,0.18566656112670898,-0.048270050436258316,-0.152487650513649
1772455356538915800,6.169915771484375,0.19887849688529968,-0.03650686889886856,-0.1619381457567215
1772455356548934000,6.179933837890625,0.1948052942752838,0.006701868958771229,-0.16729068756103516
1772455356558951000,6.189950927734375,0.18352867662906647,0.06497875601053238,-0.15696880221366882
1772455356568969000,6.199968994140625,0.1715620458126068,0.12195426225662231,-0.12771159410476685
1772455356578987000,6.209987060546875,0.16593371331691742,0.1633533537387848,-0.07785828411579132
1772455356589005000,6.220005126953125,0.16875022649765015,0.17903859913349152,-0.008295048959553242
1772455356599022800,6.23002294921875,0.1904054582118988,0.17092500627040863,0.06789825856685638
1772455356609041000,6.240041015625,0.21666279435157776,0.16568773984909058,0.14461088180541992
1772455356619059000,6.250058837890625,0.2400413602590561,0.17023295164108276,0.20965060591697693
1772455356629077000,6.260076904296875,0.26193058490753174,0.1746429204940796,0.24880413711071014
1772455356639094800,6.2700947265625,0.2759462594985962,0.12494833022356033,0.2538127303123474
1772455356649112000,6.280112060546875,0.2929380238056183,-0.004217157140374184,0.22346295416355133
1772455356659131000,6.290130859375,0.31721246242523193,-0.1510087251663208,0.16372904181480408
1772455356669149000,6.30014892578125,0.3308003842830658,-0.21139679849147797,0.09212449938058853
1772455356679167000,6.3101669921875,0.31275826692581177,-0.19650466740131378,0.007227451074868441
1772455356689185000,6.32018505859375,0.25082796812057495,-0.17330646514892578,-0.09471888095140457
1772455356699203000,6.330203125,0.1552702784538269,-0.1432148665189743,-0.20576044917106628
1772455356709219800,6.3402197265625,0.06044737622141838,-0.10446205735206604,-0.3058556318283081
1772455356719238000,6.35023779296875,-0.02042376808822155,-0.025701727718114853,-0.3761524260044098
1772455356729256000,6.360255859375,-0.06757208704948425,0.06967037916183472,-0.4148631989955902
1772455356739274000,6.37027392578125,-0.08932878077030182,0.16515108942985535,-0.4113726019859314
1772455356749291800,6.380291748046875,-0.07964387536048889,0.25568029284477234,-0.3526146113872528
1772455356759310000,6.39031005859375,-0.02649996429681778,0.3479154109954834,-0.2396390587091446
1772455356769327900,6.400327880859375,0.07501683384180069,0.423165887594223,-0.07538753747940063
1772455356779346000,6.410345947265625,0.22021369636058807,0.46258974075317383,0.12986654043197632
1772455356789364000,6.420364013671875,0.38784411549568176,0.4787777066230774,0.35541832447052
1772455356799381000,6.430381103515625,0.5510354042053223,0.47646021842956543,0.5890081524848938
1772455356809398800,6.440398681640625,0.6821743249893188,0.45851457118988037,0.8101268410682678
1772455356819417000,6.4504169921875,0.7757245302200317,0.4313148856163025,1.0064367055892944
1772455356829435000,6.460434814453125,0.814668595790863,0.37972763180732727,1.1596283912658691
1772455356839453000,6.470452880859375,0.7990930676460266,0.2992543578147888,1.2456064224243164
1772455356849471000,6.480470947265625,0.7248744964599609,0.17925776541233063,1.2341971397399902
1772455356859489000,6.490489013671875,0.61309814453125,0.007153389975428581,1.1291497945785522
1772455356869506800,6.5005068359375,0.4873914420604706,-0.20507663488388062,0.9368921518325806
1772455356879524000,6.510524169921875,0.38574445247650146,-0.4014829099178314,0.6709898710250854
1772455356889542000,6.5205419921875,0.32615891098976135,-0.5530440211296082,0.3375105857849121
1772455356899560000,6.530559814453125,0.3103210926055908,-0.6310810446739197,-0.0288836732506752
1772455356909577700,6.54057763671875,0.31482818722724915,-0.6133645176887512,-0.3860049247741699
1772455356919596000,6.550595947265625,0.29872673749923706,-0.5390561819076538,-0.6940125226974487
1772455356929613800,6.56061376953125,0.22565118968486786,-0.42649754881858826,-0.9383311867713928
1772455356939631900,6.5706318359375,0.0996093600988388,-0.31453239917755127,-1.084218978881836
1772455356949650000,6.58064990234375,-0.04394441097974777,-0.2101650983095169,-1.121016025543213
1772455356959668000,6.59066796875,-0.16351209580898285,-0.128960520029068,-1.0462685823440552
1772455356969686000,6.60068603515625,-0.2326154112815857,-0.061532530933618546,-0.8862993121147156
1772455356979703000,6.610703125,-0.2536892592906952,-0.009560409002006054,-0.6699091792106628
1772455356989720800,6.620720947265625,-0.22819960117340088,0.010381974279880524,-0.4324820339679718
1772455356999739000,6.63073876953125,-0.17251238226890564,-0.005661707371473312,-0.20031030476093292
1772455357009757000,6.6407568359375,-0.08721700310707092,-0.025311008095741272,0.008319877088069916
1772455357019775000,6.65077490234375,0.0038037211634218693,0.0012255276087671518,0.17648784816265106
1772455357029793000,6.66079296875,0.09279103577136993,0.053051210939884186,0.2930717170238495
1772455357039810800,6.670810791015625,0.1773511916399002,0.10171301662921906,0.360759437084198
1772455357049829000,6.6808291015625,0.24020758271217346,0.14011108875274658,0.39700040221214294
1772455357059846000,6.690845947265625,0.27932703495025635,0.15578272938728333,0.3979801833629608
1772455357069864000,6.700864013671875,0.2916041314601898,0.14900486171245575,0.3750580847263336
1772455357079882000,6.710882080078125,0.28862884640693665,0.11006810516119003,0.3311457335948944
1772455357089900000,6.720900146484375,0.2719462215900421,0.04329165071249008,0.26497191190719604
1772455357099917800,6.730917724609375,0.253462016582489,-0.0395536944270134,0.18424004316329956
1772455357109935900,6.740935791015625,0.24230770766735077,-0.12698300182819366,0.08996042609214783
1772455357119954000,6.750953857421875,0.22563950717449188,-0.19783854484558105,-0.01821771264076233
1772455357129972000,6.760971923828125,0.2067127376794815,-0.25514543056488037,-0.1269983947277069
1772455357139989800,6.77098974609375,0.18364736437797546,-0.2831568121910095,-0.23026646673679352
1772455357150008000,6.781008056640625,0.14791648089885712,-0.2644265294075012,-0.31384724378585815
1772455357160024800,6.79102490234375,0.11104796081781387,-0.21757246553897858,-0.36392903327941895
1772455357170043000,6.80104296875,0.056569281965494156,-0.1808582842350006,-0.38625088334083557
1772455357180061000,6.81106103515625,-0.0036413269117474556,-0.17809125781059265,-0.37849441170692444
1772455357190079000,6.821078857421875,-0.06307824701070786,-0.19678455591201782,-0.34381431341171265
1772455357200096800,6.8310966796875,-0.12153303623199463,-0.21910209953784943,-0.29907456040382385
1772455357210115000,6.841114990234375,-0.16427937150001526,-0.2344530075788498,-0.24828475713729858
1772455357220132900,6.8511328125,-0.18569998443126678,-0.22621531784534454,-0.18989494442939758
1772455357230150400,6.861150390625,-0.1993073970079422,-0.17526665329933167,-0.1344956010580063
1772455357240167400,6.87116748046875,-0.21406131982803345,-0.11244241893291473,-0.08506413549184799
1772455357250185500,6.881185546875,-0.23567751049995422,-0.07358546555042267,-0.04539874196052551
1772455357260203300,6.891203369140625,-0.26699891686439514,-0.0545065812766552,-0.013498595915734768
1772455357270221600,6.9012216796875,-0.29606893658638,-0.053167808800935745,0.01100488193333149
1772455357280239400,6.9112392578125,-0.3151819109916687,-0.05097869038581848,0.028367627412080765
1772455357290257400,6.92125732421875,-0.3209797441959381,-0.054543547332286835,0.04068461060523987
1772455357300275200,6.931275146484375,-0.31903618574142456,-0.05596594139933586,0.04995427280664444
1772455357310293500,6.94129345703125,-0.3137505352497101,-0.056065768003463745,0.055679552257061005
1772455357320311300,6.951311279296875,-0.3063916862010956,-0.04665921628475189,0.06792449951171875
1772455357330328600,6.96132861328125,-0.30376267433166504,-0.023986700922250748,0.09267324209213257
1772455357340346400,6.971346435546875,-0.30629587173461914,0.016752738505601883,0.1221855953335762
1772455357350364400,6.981364501953125,-0.3206860423088074,0.05492490530014038,0.1449698656797409
1772455357360382200,6.99138232421875,-0.3438046872615814,0.024507345631718636,0.1544049233198166
1772455357370400500,7.001400390625,-0.37120887637138367,-0.06624402850866318,0.13664855062961578
1772455357380418600,7.01141845703125,-0.39533525705337524,-0.1768757402896881,0.09074630588293076
1772455357390436400,7.021436279296875,-0.41140708327293396,-0.23448018729686737,0.019759617745876312
1772455357400454400,7.031454345703125,-0.4250776469707489,-0.23604106903076172,-0.07296499609947205
1772455357410472400,7.041472412109375,-0.4331764280796051,-0.22218836843967438,-0.17283138632774353
1772455357420489200,7.0514892578125,-0.44189855456352234,-0.1926794797182083,-0.2682495415210724
1772455357430507500,7.061507568359375,-0.4480651021003723,-0.1636892706155777,-0.33963581919670105
1772455357440525600,7.071525634765625,-0.45489904284477234,-0.13087992370128632,-0.3725719153881073
1772455357450543400,7.08154345703125,-0.4614928364753723,-0.05689685046672821,-0.35800790786743164
1772455357460561400,7.0915615234375,-0.46400341391563416,0.04590756073594093,-0.2987094223499298
1772455357470579500,7.101579345703125,-0.4567192494869232,0.1477017104625702,-0.20818552374839783
1772455357480597500,7.111597412109375,-0.43457984924316406,0.22725459933280945,-0.07977163046598434
1772455357490615300,7.121615234375,-0.3901766240596771,0.2904357612133026,0.06696083396673203
1772455357500633600,7.131633544921875,-0.32745039463043213,0.3248579204082489,0.22866690158843994
1772455357510650400,7.141650390625,-0.2545835077762604,0.31223535537719727,0.3766394555568695
1772455357520668400,7.15166845703125,-0.1827830970287323,0.2608147859573364,0.5035387873649597
1772455357530686500,7.1616865234375,-0.1211533397436142,0.20250840485095978,0.6037298440933228
1772455357540704500,7.17170458984375,-0.07697868347167969,0.15907570719718933,0.6650816202163696
1772455357550722300,7.181722412109375,-0.05190020427107811,0.12374874204397202,0.6854408383369446
1772455357560740400,7.191740234375,-0.04541114717721939,0.10345625877380371,0.6654530167579651
1772455357570758400,7.20175830078125,-0.06189430505037308,0.093736432492733,0.6057283282279968
1772455357580776400,7.2117763671875,-0.10534670203924179,0.0863024890422821,0.5147643089294434
1772455357590794200,7.221794189453125,-0.16629931330680847,0.09348451346158981,0.3974258303642273
1772455357600812500,7.2318125,-0.2528376579284668,0.11084645986557007,0.2630211412906647
1772455357610829300,7.241829345703125,-0.3412012755870819,0.119439497590065,0.11637244373559952
1772455357620847400,7.251847412109375,-0.4144478142261505,0.11870899051427841,-0.02892962284386158
1772455357630865400,7.261865478515625,-0.4504460394382477,0.11714722216129303,-0.16122347116470337
1772455357640883500,7.271883544921875,-0.45389536023139954,0.11629074811935425,-0.26867857575416565
1772455357650901200,7.2819013671875,-0.4277404546737671,0.1066308319568634,-0.36434197425842285
1772455357660919600,7.29191943359375,-0.37222474813461304,0.09583384543657303,-0.4181234538555145
1772455357670937600,7.3019375,-0.3073011636734009,0.09788539260625839,-0.42939993739128113
1772455357680955400,7.311955322265625,-0.23385997116565704,0.11070691049098969,-0.3918786346912384
1772455357690972400,7.321972412109375,-0.16390451788902283,0.1411527395248413,-0.3056544363498688
1772455357700990500,7.331990478515625,-0.10827986896038055,0.19803652167320251,-0.18088002502918243
1772455357711008300,7.34200830078125,-0.05853242427110672,0.25648611783981323,-0.029888885095715523
1772455357721026300,7.3520263671875,-0.015912789851427078,0.30812588334083557,0.1378234177827835
1772455357731044600,7.362044677734375,0.022551055997610092,0.35982799530029297,0.2984670102596283
1772455357741062400,7.3720625,0.06348011642694473,0.38369178771972656,0.438289076089859
1772455357751080400,7.38208056640625,0.10016883164644241,0.3756526708602905,0.5410392880439758
1772455357761098500,7.392098388671875,0.13854791224002838,0.3574869930744171,0.6074382662773132
1772455357771116500,7.402116455078125,0.1764187067747116,0.3210183084011078,0.6352319717407227
1772455357781133300,7.41213330078125,0.20324446260929108,0.2579647898674011,0.6168771982192993
1772455357791151600,7.422151611328125,0.21159206330776215,0.17938530445098877,0.5562793612480164
1772455357801169400,7.43216943359375,0.2071073055267334,0.09829311817884445,0.45712244510650635
1772455357811187500,7.4421875,0.18027350306510925,0.023549556732177734,0.32218262553215027
1772455357821205500,7.45220556640625,0.13793961703777313,-0.03413344547152519,0.16779117286205292
1772455357831223600,7.4622236328125,0.08315786719322205,-0.06896359473466873,-0.0001682744623394683
1772455357841241300,7.472241455078125,0.020760130137205124,-0.06852848082780838,-0.16403190791606903
1772455357851259400,7.48225927734375,-0.040144167840480804,-0.035023074597120285,-0.30738309025764465
1772455357861277400,7.49227734375,-0.09958405792713165,0.023029044270515442,-0.41975462436676025
1772455357871295500,7.50229541015625,-0.14448434114456177,0.07950017601251602,-0.5000728964805603
1772455357881312300,7.512312255859375,-0.16629137098789215,0.10130027681589127,-0.5299186706542969
1772455357891330600,7.52233056640625,-0.15683093667030334,0.0974234864115715,-0.5161769986152649
1772455357901348400,7.532348388671875,-0.13499967753887177,0.074924036860466,-0.46703505516052246
1772455357911366400,7.542366455078125,-0.10111033916473389,0.05105036124587059,-0.4038236141204834
1772455357921384400,7.552384521484375,-0.07557381689548492,0.04833340272307396,-0.3291381895542145
1772455357931402500,7.562402587890625,-0.0524614043533802,0.0613105408847332,-0.26008230447769165
1772455357941420300,7.572420166015625,-0.03149193897843361,0.056571442633867264,-0.20319263637065887
1772455357951438300,7.582438232421875,0.002537345979362726,0.06358399242162704,-0.15424786508083344
1772455357961455400,7.592455322265625,0.043245092034339905,0.0754299983382225,-0.1119275763630867
1772455357971473400,7.602473388671875,0.07841376215219498,0.07381760329008102,-0.07632283121347427
1772455357981491200,7.6124912109375,0.11060285568237305,0.05849963426589966,-0.048906926065683365
1772455357991509500,7.622509521484375,0.13394823670387268,0.04895290359854698,-0.03046294115483761
1772455358001527300,7.63252734375,0.15303990244865417,0.0467802993953228,-0.014079440385103226
1772455358011545300,7.64254541015625,0.1710221916437149,0.045946963131427765,0.0033064750023186207
1772455358021563600,7.652563720703125,0.19034235179424286,0.06460506469011307,0.01496153324842453
1772455358031581400,7.66258154296875,0.2025129199028015,0.08859453350305557,0.029154730960726738
1772455358041599500,7.672599609375,0.21830013394355774,0.09669480472803116,0.03818098083138466
1772455358051616500,7.682616455078125,0.22994571924209595,0.08866474032402039,0.0561746209859848
1772455358061634300,7.69263427734375,0.23259690403938293,0.07191372662782669,0.0663103461265564
1772455358071652400,7.70265234375,0.21942780911922455,0.0690900906920433,0.07412978261709213
1772455358081670400,7.71267041015625,0.20465311408042908,0.09552302956581116,0.07502007484436035
1772455358091688400,7.7226884765625,0.19287602603435516,0.11653076112270355,0.07209686189889908
1772455358101706500,7.73270654296875,0.1900797188282013,0.0804569199681282,0.05208080634474754
1772455358111724300,7.742724365234375,0.21984635293483734,-0.02243402786552906,0.02797001227736473
1772455358121742600,7.75274267578125,0.2761783301830292,-0.14250770211219788,0.006650342606008053
1772455358131760400,7.762760498046875,0.32898086309432983,-0.2283763885498047,-0.0001312581734964624
1772455358141778400,7.7727783203125,0.3241528272628784,-0.2693512737751007,-0.017682554200291634
1772455358151795500,7.78279541015625,0.23252417147159576,-0.29182466864585876,-0.06767822057008743
1772455358161813500,7.7928134765625,0.07400456070899963,-0.29825299978256226,-0.15007083117961884
1772455358171831300,7.802831298828125,-0.10244659334421158,-0.2470521777868271,-0.25696760416030884
1772455358181849600,7.812849609375,-0.23228074610233307,-0.1825871616601944,-0.3558669984340668
1772455358191867400,7.822867431640625,-0.2995365858078003,-0.09036116302013397,-0.4486251473426819
1772455358201885400,7.832885498046875,-0.29130980372428894,-0.0207248292863369,-0.516068696975708
1772455358211903200,7.8429033203125,-0.22615380585193634,0.027819570153951645,-0.5441727042198181
1772455358221921500,7.852921630859375,-0.13461697101593018,0.08805601298809052,-0.5176332592964172
1772455358231939600,7.862939697265625,-0.0274896789342165,0.1574789136648178,-0.4226948916912079
1772455358241957400,7.872957275390625,0.09760139137506485,0.2311462163925171,-0.2536294460296631
1772455358251975400,7.882975341796875,0.233733132481575,0.3033922612667084,-0.021473970264196396
1772455358261993700,7.89299365234375,0.3675236999988556,0.390915185213089,0.24696467816829681
1772455358272011500,7.903011474609375,0.48639097809791565,0.48162367939949036,0.5238502025604248
1772455358282029600,7.913029541015625,0.5857234597206116,0.5119112730026245,0.7879832983016968
1772455358292047600,7.923047607421875,0.655494213104248,0.476896733045578,1.0074198246002197
1772455358302065700,7.933065673828125,0.6794818639755249,0.38277530670166016,1.175649881362915
1772455358312083500,7.94308349609375,0.6538923978805542,0.24933947622776031,1.2630503177642822
1772455358322101500,7.9531015625,0.5750482082366943,0.06345907598733902,1.2552145719528198
1772455358332118500,7.963118408203125,0.4640123248100281,-0.17852117121219635,1.136022686958313
1772455358342136600,7.973136474609375,0.3474063575267792,-0.39731475710868835,0.9146407246589661
1772455358352154400,7.983154296875,0.251049280166626,-0.5388681292533875,0.6060786247253418
1772455358362172700,7.993172607421875,0.19264721870422363,-0.5907030701637268,0.22435283660888672
1772455358372190500,8.0031904296875,0.17135997116565704,-0.5716619491577148,-0.181647390127182
1772455358382208500,8.01320849609375,0.1467110812664032,-0.4780910015106201,-0.5538241863250732
1772455358392226600,8.0232265625,0.07777363806962967,-0.3455122411251068,-0.8594309687614441
1772455358402244600,8.03324462890625,-0.04535042494535446,-0.2287730723619461,-1.0665072202682495
1772455358412262400,8.043262451171875,-0.1988995224237442,-0.15866903960704803,-1.162348985671997
1772455358422279700,8.05327978515625,-0.34008756279945374,-0.1292533576488495,-1.1464948654174805
1772455358432297500,8.06329736328125,-0.4507634937763214,-0.11339277774095535,-1.0469187498092651
1772455358442315500,8.0733154296875,-0.5048802495002747,-0.0998479425907135,-0.8863564133644104
1772455358452333600,8.08333349609375,-0.5067697763442993,-0.08409366011619568,-0.6942926049232483
1772455358462351600,8.0933515625,-0.458769291639328,-0.045972906053066254,-0.4825286567211151
1772455358472369400,8.103369384765625,-0.37404686212539673,0.037770044058561325,-0.2658417820930481
1772455358482387500,8.113387451171874,-0.2546112835407257,0.1429545283317566,-0.05843399092555046
1772455358492405800,8.12340576171875,-0.11529328674077988,0.25312483310699463,0.13834790885448456
1772455358502423600,8.133423583984374,0.018759319558739662,0.32616788148880005,0.3124408721923828
1772455358512440300,8.1434404296875,0.12361430376768112,0.33768758177757263,0.4532386064529419
1772455358522458600,8.153458740234376,0.19307221472263336,0.3017101287841797,0.5521612167358398
1772455358532476700,8.1634765625,0.22882090508937836,0.234564870595932,0.6191383600234985
1772455358542494500,8.173494384765625,0.23702743649482727,0.15942351520061493,0.6383048892021179
1772455358552512800,8.1835126953125,0.22578541934490204,0.08307696133852005,0.6116729974746704
1772455358562530600,8.193530517578125,0.20158500969409943,0.0015078054275363684,0.5353779792785645
1772455358572548600,8.203548583984375,0.17346955835819244,-0.07250557094812393,0.4134478271007538
1772455358582566400,8.21356640625,0.14597056806087494,-0.12636347115039825,0.2516818046569824
1772455358592584700,8.223584716796875,0.11795129626989365,-0.15677900612354279,0.07015088200569153
1772455358602601500,8.2336015625,0.08788952976465225,-0.16800396144390106,-0.11730343103408813
1772455358612619500,8.24361962890625,0.05659376084804535,-0.18009044229984283,-0.29716917872428894
1772455358622637600,8.253637451171874,0.01072187814861536,-0.19321982562541962,-0.44049277901649475
1772455358632655600,8.263655517578124,-0.0413145013153553,-0.21418489515781403,-0.5398588180541992
1772455358642673400,8.27367333984375,-0.09738922119140625,-0.2383032739162445,-0.5932456254959106
1772455358652691700,8.283691650390624,-0.14628984034061432,-0.25082364678382874,-0.5938320159912109
1772455358662709500,8.29370947265625,-0.18533524870872498,-0.24607467651367188,-0.5571653246879578
1772455358672727600,8.3037275390625,-0.21707560122013092,-0.23702764511108398,-0.492509126663208
1772455358682745300,8.313745361328126,-0.24706704914569855,-0.21274787187576294,-0.4139038026332855
1772455358692762600,8.3237626953125,-0.26581019163131714,-0.19051603972911835,-0.33498474955558777
1772455358702780400,8.333780517578125,-0.27210697531700134,-0.1728491634130478,-0.25321877002716064
1772455358712798700,8.343798828125,-0.25468555092811584,-0.1602276861667633,-0.17891338467597961
1772455358722816500,8.35381640625,-0.22292043268680573,-0.14787434041500092,-0.11173861473798752
1772455358732834600,8.36383447265625,-0.181779682636261,-0.12881648540496826,-0.04862023517489433
1772455358742852400,8.373852294921875,-0.14486747980117798,-0.10310711711645126,0.00977090559899807
1772455358752870700,8.38387060546875,-0.11363391578197479,-0.06788512319326401,0.06715855747461319
1772455358762888400,8.393888427734375,-0.09622509777545929,-0.025617022067308426,0.12486526370048523
1772455358772906500,8.403906494140625,-0.09836829453706741,-0.0024620522744953632,0.17525240778923035
1772455358782923500,8.413923583984374,-0.1144559234380722,-0.00011580740101635456,0.21256569027900696
1772455358792941600,8.423941650390624,-0.13870744407176971,-0.028332863003015518,0.23136946558952332
1772455358802959400,8.43395947265625,-0.1576230674982071,-0.0727197676897049,0.23635782301425934
1772455358812977700,8.443977783203126,-0.16703417897224426,-0.11284741759300232,0.22503647208213806
1772455358822995700,8.45399560546875,-0.16426129639148712,-0.14391744136810303,0.20087973773479462
1772455358833013500,8.464013427734375,-0.1508667767047882,-0.1651792824268341,0.16843566298484802
1772455358843031600,8.474031494140625,-0.1343434602022171,-0.09882129728794098,0.1512654572725296
1772455358853049600,8.484049560546875,-0.1326056867837906,0.015703871846199036,0.1359177827835083
1772455358863067600,8.494067626953125,-0.1466863602399826,0.051683709025382996,0.12030845880508423
1772455358873084700,8.504084716796875,-0.1821804940700531,-0.024216199293732643,0.09406207501888275
1772455358883102700,8.514102783203125,-0.22963456809520721,-0.175433948636055,0.04272166267037392
1772455358893120500,8.52412060546875,-0.27608034014701843,-0.28540757298469543,-0.03074163757264614
1772455358903138600,8.534138671875,-0.3117014467716217,-0.2871634066104889,-0.12211868911981583
1772455358913156600,8.544156494140625,-0.33159545063972473,-0.22277380526065826,-0.21607553958892822
1772455358923174700,8.554174560546874,-0.3452923595905304,-0.12548133730888367,-0.29091888666152954
1772455358933192400,8.5641923828125,-0.3570602238178253,-0.03619767725467682,-0.33414426445961
1772455358943210500,8.57421044921875,-0.3623170554637909,0.01064359676092863,-0.3496561050415039
1772455358953228500,8.584228515625,-0.35784435272216797,0.0030738131608814,-0.3317616581916809
1772455358963245600,8.59424560546875,-0.34496504068374634,-0.01729217730462551,-0.28220051527023315
1772455358973263600,8.604263671875,-0.3281573951244354,-0.03581395000219345,-0.2093288153409958
1772455358983281700,8.61428173828125,-0.3156578540802002,-0.03518437594175339,-0.13105584681034088
1772455358993299500,8.624299560546875,-0.3077351450920105,-0.008739372715353966,-0.04575307294726372
1772455359003317500,8.6343173828125,-0.2862410247325897,0.036398276686668396,0.04678245261311531
1772455359013335600,8.64433544921875,-0.22998036444187164,0.07727878540754318,0.143509641289711
1772455359023353600,8.654353515625,-0.14394907653331757,0.11449512839317322,0.2392614781856537
1772455359033371400,8.664371337890625,-0.04653283581137657,0.1398647576570511,0.32821333408355713
1772455359043389400,8.674389404296875,0.0361924022436142,0.14669816195964813,0.4137151837348938
1772455359053406500,8.684406494140624,0.0814041718840599,0.12377896159887314,0.49398180842399597
1772455359063424500,8.694424560546874,0.09093216806650162,0.08350396901369095,0.5562752485275269
1772455359073442600,8.704442626953124,0.0723389983177185,0.018297554925084114,0.5913865566253662
1772455359083460600,8.714460693359374,0.027270589023828506,-0.055645644664764404,0.5962046980857849
1772455359093478400,8.724478515625,-0.04361163452267647,-0.11257261037826538,0.5551651120185852
1772455359103496400,8.734496337890626,-0.1334456503391266,-0.12922535836696625,0.47471845149993896
1772455359113514800,8.7445146484375,-0.24113179743289948,-0.0781664177775383,0.3521184027194977
1772455359123532500,8.754532470703126,-0.34800150990486145,0.0176935326308012,0.2000385969877243
1772455359133550600,8.764550537109375,-0.44224798679351807,0.11055700480937958,0.03887072578072548
1772455359143567600,8.774567626953125,-0.5101718902587891,0.17872993648052216,-0.1218142956495285
1772455359153585400,8.78458544921875,-0.542777419090271,0.2135079950094223,-0.25385233759880066
1772455359163603500,8.794603515625,-0.5407702326774597,0.19223253428936005,-0.3468155860900879
1772455359173621800,8.804621826171875,-0.5143318176269531,0.13460129499435425,-0.3971408009529114
1772455359183639600,8.8146396484375,-0.4722668528556824,0.05498795583844185,-0.4086427092552185
1772455359193657600,8.82465771484375,-0.41762784123420715,-0.0412866473197937,-0.3985421359539032
1772455359203675400,8.83467529296875,-0.3538456857204437,-0.1290591061115265,-0.36533012986183167
1772455359213693700,8.844693603515625,-0.28346896171569824,-0.17271791398525238,-0.3200826048851013
1772455359223711500,8.85471142578125,-0.21753893792629242,-0.14237865805625916,-0.261231005191803
1772455359233728500,8.864728515625,-0.1383308321237564,-0.057678885757923126,-0.18822899460792542
1772455359243746300,8.874746337890626,-0.0375424399971962,0.07577104866504669,-0.08958258479833603
1772455359253764400,8.884764404296876,0.06911150366067886,0.23627068102359772,0.03939909487962723
1772455359263782100,8.8947822265625,0.17166930437088013,0.3581702411174774,0.19284483790397644
1772455359273800400,8.904800537109375,0.24937617778778076,0.4034329950809479,0.3434860408306122
1772455359283818200,8.914818359375,0.30937665700912476,0.3692531883716583,0.49306434392929077
1772455359293836300,8.924836181640625,0.353135883808136,0.30976542830467224,0.6222048401832581
1772455359303854300,8.934854248046875,0.38142743706703186,0.22360709309577942,0.7228414416313171
1772455359313872400,8.944872314453125,0.3843429386615753,0.12331224232912064,0.7770031094551086
1772455359323889200,8.95488916015625,0.36608725786209106,0.025463439524173737,0.7685283422470093
1772455359333907500,8.964907470703125,0.33642253279685974,-0.05084532871842384,0.6979760527610779
1772455359343925200,8.97492529296875,0.29254400730133057,-0.09506125748157501,0.5660944581031799
1772455359353943300,8.984943359375,0.24861760437488556,-0.1265491545200348,0.3824145197868347
1772455359363961300,8.99496142578125,0.19966763257980347,-0.15487773716449738,0.16556714475154877
1772455359373979400,9.0049794921875,0.14170050621032715,-0.18069374561309814,-0.06315403431653976
1772455359383997200,9.0149970703125,0.08980881422758102,-0.2000482678413391,-0.29305195808410645
1772455359394015200,9.02501513671875,0.037697046995162964,-0.2064034342765808,-0.4868970513343811
1772455359404033300,9.035033203125,-0.005770535208284855,-0.18575674295425415,-0.6303245425224304
1772455359414051300,9.04505126953125,-0.031111354008316994,-0.16561710834503174,-0.7248623371124268
1772455359424068000,9.055068115234375,-0.037134893238544464,-0.13600674271583557,-0.7564932107925415
1772455359434086400,9.06508642578125,-0.030755378305912018,-0.10177969932556152,-0.7302910685539246
1772455359444104200,9.075104248046875,-0.02113950252532959,-0.0686691552400589,-0.6556208729743958
1772455359454122200,9.085122314453125,-0.0022010894026607275,-0.04354064539074898,-0.5540750026702881
1772455359464140300,9.095140380859375,0.030740881338715553,-0.016631001606583595,-0.4169677793979645
1772455359474158300,9.105158447265625,0.07759574055671692,0.02354384958744049,-0.2679271697998047
1772455359484176400,9.11517626953125,0.13048318028450012,0.04861830919981003,-0.11759251356124878
1772455359494194200,9.125194091796875,0.1839255392551422,0.04571503400802612,0.013839022256433964
1772455359504212500,9.13521240234375,0.2321133017539978,0.02909184619784355,0.11909779906272888
1772455359514229200,9.145229248046874,0.2836509644985199,-0.0008333104196935892,0.18889831006526947
1772455359524247300,9.155247314453124,0.3272935152053833,-0.011130422353744507,0.22018805146217346
1772455359534265300,9.165265380859376,0.36335307359695435,0.01207057386636734,0.22425229847431183
1772455359544283400,9.175283447265626,0.37370529770851135,0.044109467417001724,0.20686665177345276
1772455359554301200,9.18530126953125,0.35797399282455444,0.08007577806711197,0.17411111295223236
1772455359564319500,9.195319580078126,0.3276571035385132,0.10393290966749191,0.1367003619670868
1772455359574337300,9.205337158203125,0.2945674955844879,0.1174057349562645,0.09603161364793777
1772455359584355300,9.215355224609375,0.2678176462650299,0.13656210899353027,0.0613628514111042
1772455359594373000,9.225373046875,0.24985145032405853,0.16790829598903656,0.03943611681461334
1772455359604390400,9.235390380859375,0.23831729590892792,0.15673473477363586,0.01630309969186783
1772455359614408200,9.245408203125,0.23160822689533234,0.07106117904186249,-0.01826072670519352
1772455359624426200,9.25542626953125,0.2453102022409439,-0.06563834100961685,-0.05388157442212105
1772455359634444300,9.2654443359375,0.28018173575401306,-0.1847696304321289,-0.089826799929142
1772455359644462300,9.27546240234375,0.3105252683162689,-0.24394001066684723,-0.12759467959403992
1772455359654480100,9.285480224609374,0.2979145348072052,-0.2561291754245758,-0.1793040782213211
1772455359664498400,9.29549853515625,0.22791464626789093,-0.25627830624580383,-0.2459709793329239
1772455359674516200,9.30551611328125,0.1290183663368225,-0.25022295117378235,-0.30950257182121277
1772455359684534300,9.3155341796875,0.04104243963956833,-0.18851377069950104,-0.3437731862068176
1772455359694551300,9.32555126953125,-0.008510401472449303,-0.08111841976642609,-0.34446948766708374
1772455359704569300,9.3355693359375,-0.02455594763159752,0.03620927035808563,-0.32186803221702576
1772455359714587100,9.345587158203125,-0.01409071683883667,0.10732991248369217,-0.28710711002349854
1772455359724605400,9.35560546875,0.0035671056248247623,0.12946291267871857,-0.23416054248809814
1772455359734623200,9.365623291015625,0.034095216542482376,0.1339360922574997,-0.16988368332386017
1772455359744641300,9.375641357421875,0.07694947719573975,0.14759545028209686,-0.09747978299856186
1772455359754659000,9.3856591796875,0.14456114172935486,0.17314310371875763,-0.0048261466436088085
1772455359764677400,9.395677490234375,0.24187330901622772,0.2168346643447876,0.10676935315132141
1772455359774695400,9.4056953125,0.3549860417842865,0.2689717411994934,0.23689459264278412
1772455359784712200,9.415712158203124,0.4681360125541687,0.31181108951568604,0.3741113245487213
1772455359794730200,9.425730224609374,0.5734887719154358,0.3370607793331146,0.5038704872131348
1772455359804748300,9.435748291015624,0.6609989404678345,0.31540393829345703,0.6348506212234497
1772455359814766300,9.445766357421874,0.7241159677505493,0.25060415267944336,0.7481658458709717
1772455359824784400,9.455784423828124,0.7426672577857971,0.14737042784690857,0.8308852314949036
1772455359834802400,9.465802490234376,0.7055031061172485,0.010544310323894024,0.8585230112075806
1772455359844820200,9.4758203125,0.6261067986488342,-0.1802394837141037,0.8158479332923889
1772455359854838300,9.48583837890625,0.5158019661903381,-0.3785635828971863,0.691883385181427
1772455359864856300,9.495856201171875,0.41037702560424805,-0.5166319608688354,0.49686571955680847
1772455359874873300,9.505873291015625,0.3209933042526245,-0.5582148432731628,0.23677274584770203
1772455359884891400,9.515891357421875,0.25901755690574646,-0.5087157487869263,-0.0569014698266983
1772455359894909400,9.525909423828125,0.19238241016864777,-0.3973800241947174,-0.3423489034175873
1772455359904927200,9.53592724609375,0.10632235556840897,-0.2751622200012207,-0.5911023020744324
1772455359914945300,9.5459453125,-0.000845122616738081,-0.17813318967819214,-0.7678743004798889
1772455359924963300,9.55596337890625,-0.11187603324651718,-0.10058939456939697,-0.8535705208778381
1772455359934981400,9.5659814453125,-0.21288169920444489,-0.05358542129397392,-0.8394087553024292
1772455359944999200,9.575999267578124,-0.2919378876686096,-0.0420648530125618,-0.7503353357315063
1772455359955017200,9.586017333984374,-0.34149038791656494,-0.03644159063696861,-0.6061701774597168
1772455359965035300,9.59603515625,-0.3679331839084625,-0.02042560651898384,-0.4336700439453125
1772455359975052300,9.60605224609375,-0.36323410272598267,0.015950746834278107,-0.2625286877155304
1772455359985070300,9.6160703125,-0.3236648440361023,0.06225859373807907,-0.10265431553125381
1772455359995088400,9.62608837890625,-0.25773850083351135,0.11710129678249359,0.03615337237715721
1772455360005106200,9.636106201171875,-0.17046163976192474,0.1855168342590332,0.15535405278205872
1772455360015124200,9.646124267578125,-0.07802706211805344,0.22858750820159912,0.23652109503746033
1772455360025142300,9.656142333984375,-0.0002403851831331849,0.22306837141513824,0.2813761830329895
1772455360035160300,9.666160400390625,0.06129840761423111,0.1984359174966812,0.2985055148601532
1772455360045178400,9.676178466796875,0.10233106464147568,0.16937443614006042,0.30774348974227905
1772455360055196200,9.686196044921875,0.1321161389350891,0.1276828646659851,0.2970949411392212
1772455360065213200,9.696213134765625,0.16011421382427216,0.0769275426864624,0.2714492380619049
1772455360075231200,9.706231201171875,0.1904180496931076,0.012836232781410217,0.23646928369998932
1772455360085249300,9.716249267578124,0.21962547302246094,-0.042472563683986664,0.1890953779220581
1772455360095267300,9.726267333984374,0.2402162253856659,-0.08855552226305008,0.14069576561450958
1772455360105285400,9.736285400390624,0.23826119303703308,-0.13461115956306458,0.08339733630418777
1772455360115303200,9.74630322265625,0.21429486572742462,-0.20514024794101715,0.01782962866127491
1772455360125321500,9.756321533203124,0.1621570885181427,-0.2665250301361084,-0.04894300922751427
1772455360135339300,9.76633935546875,0.10526429861783981,-0.2987004816532135,-0.11192210763692856
1772455360145357300,9.776357421875,0.05098774656653404,-0.308899849653244,-0.16584153473377228
1772455360155374300,9.786374267578125,-0.0004096879856660962,-0.2998112142086029,-0.21032856404781342
1772455360165392400,9.796392333984375,-0.043112143874168396,-0.27755624055862427,-0.23577053844928741
1772455360175410200,9.80641015625,-0.09015060216188431,-0.22742624580860138,-0.25011980533599854
1772455360185428500,9.816428466796875,-0.1363987922668457,-0.16500867903232574,-0.24487709999084473
1772455360195446300,9.8264462890625,-0.1841733306646347,-0.10843930393457413,-0.21902579069137573
1772455360205464300,9.83646435546875,-0.22373858094215393,-0.07083120942115784,-0.1725863814353943
1772455360215482000,9.846482177734375,-0.2545755207538605,-0.06104811653494835,-0.10943830758333206
1772455360225500400,9.85650048828125,-0.26961278915405273,-0.09127926081418991,-0.038579847663640976
1772455360235518700,9.866518798828125,-0.26922371983528137,-0.14513076841831207,0.02180919423699379
1772455360245535500,9.876535400390624,-0.2608658969402313,-0.19159840047359467,0.07264573872089386
1772455360255553800,9.8865537109375,-0.256639301776886,-0.2140617072582245,0.10119722783565521
1772455360265571600,9.896571533203126,-0.2609837055206299,-0.21178150177001953,0.10208272933959961
1772455360275589600,9.906589599609376,-0.28302547335624695,-0.17799223959445953,0.08579869568347931
1772455360285607700,9.916607666015626,-0.3077593147754669,-0.1407947987318039,0.055630140006542206
1772455360295625700,9.926625732421876,-0.3348856270313263,-0.11169448494911194,0.017633888870477676
1772455360305643500,9.9366435546875,-0.35503217577934265,-0.0782233402132988,-0.014200473204255104
1772455360315660800,9.946660888671875,-0.3695754408836365,-0.07061628997325897,-0.04475225880742073
1772455360325678600,9.9566787109375,-0.3758740723133087,-0.12280519306659698,-0.06659816950559616
1772455360335696600,9.966696533203125,-0.3719593584537506,-0.19822922348976135,-0.0942871943116188
1772455360345714700,9.976714599609375,-0.3689744770526886,-0.24606919288635254,-0.11995447427034378
1772455360355732700,9.986732666015625,-0.37406477332115173,-0.2563380002975464,-0.14357498288154602
1772455360365749500,9.99674951171875,-0.39297083020210266,-0.23534081876277924,-0.17534410953521729
1772455360375767800,10.006767822265624,-0.4259953498840332,-0.1975548267364502,-0.2131338268518448
1772455360385785600,10.01678564453125,-0.4732162058353424,-0.1568150520324707,-0.24831457436084747
1772455360395803600,10.0268037109375,-0.515890896320343,-0.12570825219154358,-0.2780469059944153
1772455360405821400,10.036821533203126,-0.541854977607727,-0.09482179582118988,-0.2923322021961212
1772455360415839700,10.04683984375,-0.5484742522239685,-0.06142184138298035,-0.2956293523311615
1772455360425857800,10.05685791015625,-0.5355212092399597,-0.019305279478430748,-0.2916138172149658
1772455360435875600,10.06687548828125,-0.49456873536109924,0.03138985484838486,-0.27327877283096313
1772455360445894000,10.076893798828126,-0.43162018060684204,0.0896318256855011,-0.2225935012102127
1772455360455910700,10.08691064453125,-0.34445422887802124,0.1534850299358368,-0.1401452273130417
1772455360465928400,10.096928466796875,-0.23335513472557068,0.20901939272880554,-0.024471621960401535
1772455360475946800,10.10694677734375,-0.11677765101194382,0.20566222071647644,0.10650823265314102
1772455360485964800,10.11696484375,-0.01850060373544693,0.17438508570194244,0.24453826248645782
1772455360495982600,10.126982666015625,0.053672678768634796,0.11200032383203506,0.3760596811771393
1772455360506000600,10.137000732421875,0.10228655487298965,0.030370712280273438,0.48348894715309143
1772455360516018700,10.147018798828125,0.12792223691940308,-0.04731566086411476,0.5557681918144226
1772455360526036700,10.15703662109375,0.11697079986333847,-0.0777401477098465,0.593695342540741
1772455360536054500,10.167054443359374,0.0673782154917717,-0.0633431002497673,0.5795496702194214
1772455360546072800,10.17707275390625,-0.01039140485227108,-0.03457339480519295,0.5206488370895386
1772455360556089600,10.187089599609376,-0.09200344234704971,0.021620899438858032,0.41737890243530273
1772455360566107600,10.197107666015626,-0.15728312730789185,0.09595644474029541,0.2941102087497711
1772455360576125700,10.207125732421876,-0.1975349485874176,0.17925666272640228,0.15648844838142395
1772455360586143700,10.217143798828126,-0.22557346522808075,0.24060186743736267,0.018652411177754402
1772455360596161500,10.22716162109375,-0.24440139532089233,0.26074516773223877,-0.1007341668009758
1772455360606179800,10.237179931640625,-0.2586338520050049,0.24382345378398895,-0.18990719318389893
1772455360616197600,10.24719775390625,-0.2580302953720093,0.19047987461090088,-0.2458663284778595
1772455360626215700,10.257215576171875,-0.24254345893859863,0.11302050203084946,-0.27089232206344604
1772455360636232700,10.267232666015625,-0.2158970832824707,0.032002564519643784,-0.27940765023231506
1772455360646250800,10.277250732421875,-0.17902562022209167,-0.02908369153738022,-0.2773551344871521
1772455360656268500,10.2872685546875,-0.13086511194705963,-0.05499951168894768,-0.26459380984306335
1772455360666287600,10.29728759765625,-0.0882183164358139,-0.02130999229848385,-0.23673926293849945
1772455360676305700,10.3073056640625,-0.046095363795757294,0.05527772754430771,-0.19467569887638092
1772455360686323700,10.31732373046875,-0.008507508784532547,0.13351313769817352,-0.13447999954223633
1772455360696341800,10.327341796875,0.038387808948755264,0.18315069377422333,-0.05943334102630615
1772455360706358800,10.33735888671875,0.1013963371515274,0.2135796993970871,0.029110904783010483
1772455360716376800,10.347376953125,0.16781219840049744,0.22327005863189697,0.1215517669916153
1772455360726394600,10.35739453125,0.22924652695655823,0.207462340593338,0.20202398300170898
1772455360736412700,10.36741259765625,0.26572751998901367,0.16366353631019592,0.2634148895740509
1772455360746430700,10.3774306640625,0.2729060649871826,0.11240992695093155,0.29215118288993835
1772455360756448800,10.38744873046875,0.2568894624710083,0.059632882475852966,0.2878974676132202
1772455360766466600,10.397466552734375,0.22195972502231598,0.015373009257018566,0.2648313045501709
1772455360776484600,10.407484619140625,0.19966621696949005,0.0159600842744112,0.20174992084503174
1772455360786502700,10.417502685546875,0.20801016688346863,-0.01018869411200285,0.12177412956953049
1772455360796519700,10.427519775390625,0.22587339580059052,0.004526997916400433,0.04612091928720474
1772455360806537700,10.437537841796875,0.23889918625354767,0.037798669189214706,-0.03409429267048836
1772455360816555800,10.4475556640625,0.24437272548675537,0.055981315672397614,-0.1013975590467453
1772455360826573600,10.457573486328124,0.23747380077838898,0.07539496570825577,-0.15176458656787872
1772455360836591600,10.467591552734374,0.21915993094444275,0.08097895979881287,-0.1847067028284073
1772455360846609700,10.477609619140624,0.21626827120780945,0.04404198378324509,-0.1888604313135147
1772455360856627700,10.487627685546874,0.20885156095027924,-0.006365922745317221,-0.17944084107875824
1772455360866645500,10.4976455078125,0.20590557157993317,-0.03936462104320526,-0.15896379947662354
1772455360876663800,10.507663818359376,0.19484589993953705,-0.07307498157024384,-0.1461033821105957
1772455360886680600,10.5176806640625,0.17267641425132751,-0.07225792855024338,-0.1499263495206833
1772455360896698600,10.52769873046875,0.14123699069023132,-0.03375574201345444,-0.16705791652202606
1772455360906716700,10.537716552734375,0.11428073048591614,-0.012943406589329243,-0.18153886497020721
1772455360916734700,10.547734619140625,0.08948587626218796,-0.017006635665893555,-0.20460145175457
1772455360926752500,10.55775244140625,0.0746680498123169,-0.04567316919565201,-0.2248222976922989
1772455360936770600,10.5677705078125,0.07082287222146988,-0.06027012690901756,-0.23936662077903748
1772455360946788900,10.577788818359375,0.08792968839406967,-0.030117815360426903,-0.24017594754695892
1772455360956806700,10.587806640625,0.1207393929362297,0.024737246334552765,-0.21804694831371307
1772455360966824700,10.59782470703125,0.16518676280975342,0.07606248557567596,-0.17957252264022827
1772455360976842800,10.6078427734375,0.20917582511901855,0.09219279885292053,-0.1260756105184555
1772455360986859500,10.617859619140624,0.25757184624671936,0.09611403942108154,-0.05981217697262764
1772455360996877600,10.627877685546874,0.2964703142642975,0.08890222758054733,0.008146911859512329
1772455361006895900,10.637895751953126,0.32858750224113464,0.08111701160669327,0.07678242772817612
1772455361016913700,10.64791357421875,0.33434921503067017,0.0782402828335762,0.13144901394844055
1772455361026931700,10.657931640625,0.3222169280052185,0.06622862815856934,0.16437900066375732
1772455361036949800,10.66794970703125,0.2823517322540283,0.07896506786346436,0.18470317125320435
1772455361046967800,10.6779677734375,0.22732096910476685,0.11471640318632126,0.1759088784456253
1772455361056985600,10.687985595703125,0.17091968655586243,0.1503765732049942,0.14135342836380005
1772455361067003600,10.698003662109375,0.13843578100204468,0.19718855619430542,0.09538673609495163
1772455361077020700,10.708020751953125,0.1343335509300232,0.21720638871192932,0.035840313881635666
1772455361087038700,10.718038818359375,0.1634829193353653,0.16387684643268585,-0.030674530193209648
1772455361097056500,10.728056396484375,0.21105091273784637,0.06365524977445602,-0.08782582730054855
1772455361107074800,10.73807470703125,0.2625489830970764,-0.03892013058066368,-0.1277351677417755
1772455361117092600,10.748092529296875,0.28132596611976624,-0.10914921760559082,-0.15373161435127258
1772455361127110700,10.758110595703124,0.2490077018737793,-0.14171408116817474,-0.1740504652261734
1772455361137128700,10.768128662109374,0.17444556951522827,-0.15324033796787262,-0.19873449206352234
1772455361147146800,10.778146728515624,0.08096782118082047,-0.14558695256710052,-0.2236984372138977
1772455361157164500,10.78816455078125,-0.003578615142032504,-0.09584172070026398,-0.25229454040527344
1772455361167181800,10.798181884765626,-0.05399837717413902,-0.0418890044093132,-0.28548312187194824
1772455361177199600,10.80819970703125,-0.06963752210140228,0.03891503065824509,-0.3083692491054535
1772455361187217700,10.8182177734375,-0.041371800005435944,0.13407909870147705,-0.31116318702697754
1772455361197235700,10.828235595703125,0.02236606925725937,0.20065300166606903,-0.28889140486717224
1772455361207253800,10.838253662109375,0.10219885408878326,0.23624694347381592,-0.2341751754283905
1772455361217271600,10.848271484375,0.1781284213066101,0.24719399213790894,-0.1564638763666153
1772455361227289600,10.85828955078125,0.23735366761684418,0.21518707275390625,-0.0641789585351944
1772455361237307600,10.8683076171875,0.2756330072879791,0.15730160474777222,0.02712738886475563
1772455361247325700,10.87832568359375,0.3013990819454193,0.09778928756713867,0.11103188246488571
1772455361257342500,10.888342529296875,0.3233528137207031,0.040661368519067764,0.1712077409029007
1772455361267360800,10.89836083984375,0.3401291072368622,0.007840306498110294,0.21530410647392273
1772455361277378600,10.908378662109374,0.364397257566452,0.008231154642999172,0.24409125745296478
1772455361287396600,10.918396728515624,0.38651561737060547,0.05526018515229225,0.26556405425071716
1772455361297414700,10.92841455078125,0.4063722789287567,0.14451076090335846,0.285525381565094
1772455361307432700,10.9384326171875,0.40908417105674744,0.25252988934516907,0.2909371852874756
1772455361317450500,10.948450439453126,0.4059397280216217,0.3216923475265503,0.2750025689601898
1772455361327468500,10.958468505859376,0.4029311537742615,0.3562583327293396,0.23211343586444855
1772455361337486600,10.968486572265626,0.40592044591903687,0.3647458851337433,0.16496515274047852
1772455361347504600,10.978504638671875,0.39372581243515015,0.36094608902931213,0.27192220091819763
1772455361357521400,10.988521484375,0.3548749089241028,-0.0036966276820749044,0.3212341368198395
1772455361367539700,10.998539794921875,0.2973754107952118,-0.3649275302886963,0.2665165662765503
1772455361377557500,11.0085576171875,0.270035058259964,-0.5438660979270935,0.1276693046092987
1772455361387575600,11.018575439453125,0.27216586470603943,-0.5769734978675842,-0.06444234400987625
1772455361397593600,11.028593505859375,0.2733656167984009,-0.4820394814014435,-0.3166911005973816
1772455361407611600,11.038611572265625,0.2512960135936737,-0.322299599647522,-0.589754581451416
1772455361417629400,11.04862939453125,0.20172272622585297,-0.13142958283424377,-0.7833303213119507
1772455361427647500,11.0586474609375,0.13493464887142181,0.012025577947497368,-0.8404718637466431
