time,seconds_elapsed,z,y,x
1772456732452654600,0.082654541015625,1.4624889655649662,1.165000349201262,0.7338886406157166
1772456732462673400,0.09267333984375,1.5353905356466768,0.9383204222932457,0.9010966070532799
1772456732472693500,0.102693603515625,2.041519272097945,0.9371376422494649,0.6512379760663956
1772456732482712600,0.112712646484375,2.3847967029511925,0.6849959418267011,0.573530211279355
1772456732492732400,0.122732421875,2.668891876995563,0.42319194843694563,0.6942401555120945
1772456732502751500,0.13275146484375,2.885869909578562,0.24886983914524316,0.6063816201213746
1772456732512771600,0.142771484375,2.7773972598999737,0.04840747255533933,0.33659097535926846
1772456732522790400,0.152790283203125,2.5039339545071124,-0.14160627299547193,-0.10042462350782007
1772456732532810500,0.162810546875,2.319045004624128,-0.3816857797026634,-0.45273244263269
1772456732542829600,0.17282958984375,2.235056807860732,-0.6396767906755209,-0.5274015338435769
1772456732552849400,0.182849365234375,2.1319413013011217,-1.043539623133838,-0.5832233377760276
1772456732562868500,0.192868408203125,1.786532119116187,-1.6641422955051064,-0.5799547279015184
1772456732572888300,0.202888427734375,1.029229650491476,-2.3308847877606746,-0.530407401128672
1772456732582907400,0.212907470703125,0.08451134385466576,-2.9820471413075924,-0.3589177387839183
1772456732592927500,0.222927490234375,-1.6116367399811744,-2.9776290326043964,-0.26516853791940953
1772456732602947600,0.232947509765625,-2.3473194974720477,-1.7036694192513822,-0.42637090726662424
1772456732612966700,0.242966552734375,-3.9606186177074907,-0.4324871616572141,-1.735235062599182
1772456732622986500,0.252986572265625,-5.450561407387256,-0.6028042730912566,-3.1612469396382568
1772456732633005300,0.26300537109375,-5.942102815559506,-1.2025304539114237,-3.3818235812351105
1772456732643025400,0.273025390625,-5.979819675013423,-1.0183891075253486,-2.1265201530352233
1772456732653044500,0.28304443359375,-6.756442345657944,-0.5105654037244618,-0.4179826893560588
1772456732663064600,0.293064697265625,-7.891262952911854,0.3696358609467745,0.40261458596289157
1772456732673083600,0.303083740234375,-9.053401190680265,1.237478871565312,-0.12622706368640063
1772456732683103500,0.313103515625,-9.248019507417082,2.539111066350341,-0.8276303888261318
1772456732693122300,0.323122314453125,-8.05246181512773,3.9671126559019085,-0.5632325795508921
1772456732703142400,0.333142333984375,-6.207519592618942,4.473114551103115,0.5055208336859941
1772456732713161500,0.343161376953125,-4.588935809978842,4.251449529747664,1.611849359818548
1772456732723181600,0.353181640625,-3.1497739439874888,3.7206837801679966,2.2601380576252934
1772456732733200600,0.36320068359375,-1.8986609532147645,2.8486165759831663,2.4012092008307575
1772456732743220500,0.373220458984375,-0.7465916895180941,1.8766634948097167,1.976233876108378
1772456732753239300,0.3832392578125,0.255582196265459,1.0432368407949804,0.7023444053821265
1772456732763259400,0.39325927734375,1.0445745191395281,0.1404097566872835,-1.2639768562600016
1772456732773278500,0.403278564453125,1.7470085025012492,-1.0576882677346466,-2.447403819642216
1772456732783298600,0.413298583984375,2.595213477322459,-2.000631089131534,-2.680828690765798
1772456732793317600,0.423317626953125,3.4134079292833803,-2.348719427397847,-2.3430955961667
1772456732803337500,0.43333740234375,3.7714912996023893,-2.052994898097217,-1.155346970193088
1772456732813356300,0.443356201171875,3.689319212350249,-2.310524867429584,-0.83283248751387
1772456732823376400,0.45337646484375,3.7772850805729625,-2.3124000136516987,-0.3157286219313741
1772456732833395500,0.4633955078125,3.7765725483894346,-1.7709240694873034,0.6036999798219651
1772456732843415600,0.47341552734375,3.80131126832664,-1.1933378242827952,1.2751415166139601
1772456732853434600,0.4834345703125,3.882240662041306,-0.7867622257344424,1.9539805432461201
1772456732863454500,0.493454345703125,3.997220209395885,-0.45139936739802355,2.300855560199916
1772456732873473300,0.503473388671875,4.174803220179677,-0.2928876984395087,2.1848003464378416
1772456732883493400,0.513493408203125,4.5215193933099505,-0.028770313540846106,2.0557322141066194
1772456732893512400,0.523512451171875,5.120787601229548,0.3640300037637353,2.2087010081157086
1772456732903532500,0.533532470703125,5.684569485226273,0.44822424449324605,2.5375749428242442
1772456732913552600,0.543552734375,6.146694244778156,0.3244683932259679,2.5076558976396917
1772456732923571700,0.55357177734375,6.092872638219594,0.45798196065872904,2.207076329523325
1772456732933591600,0.563591552734375,5.912456449836492,0.5689151552319527,1.901550098785013
1772456732943610400,0.5736103515625,5.8160845723181955,0.40713469373583794,1.7104972194448111
1772456732953630500,0.58363037109375,5.654841286438703,0.021714403679966927,1.8435349860593675
1772456732963649500,0.5936494140625,5.350136455085873,-0.39839696826785803,2.095985021778941
1772456732973669600,0.603669677734375,4.669328028076887,-0.8055613264895976,2.591890178118646
1772456732983688700,0.613688720703125,3.3690947403043507,-1.040810344300419,2.9774878705680368
1772456732993708300,0.623708251953125,1.8013953417271376,-0.8797278019405901,2.9612089359402654
1772456733003727400,0.633727294921875,0.33937224010825157,-0.44645679642930625,2.5155454818457366
1772456733013747500,0.64374755859375,-0.9284995777636766,0.03194178318381309,1.6308597652368246
1772456733023766500,0.6537666015625,-2.552434073781967,0.34188217710256574,0.7184035597793758
1772456733033786600,0.66378662109375,-4.359959296566248,-0.2571785255461931,-0.2013978938743472
1772456733043805700,0.6738056640625,-5.963799683582782,-1.671481844612956,-0.8333261162497103
1772456733053825300,0.6838251953125,-6.631953796201944,-2.765484996049106,-1.4452907241351902
1772456733063844400,0.69384423828125,-6.249508722564578,-1.997287039400637,-1.9980133078485727
1772456733073864400,0.703864501953125,-5.564204737702012,-0.4522749811887741,-1.7697319370932876
1772456733083883500,0.713883544921875,-5.509671183481812,0.06356529419869184,-2.236770626041293
1772456733093903600,0.723903564453125,-6.2691539187550545,0.6306266382575034,-3.6902269748449323
1772456733103922700,0.733922607421875,-6.825969470870494,1.3462334069252013,-4.952788411349058
1772456733113942300,0.7439423828125,-7.135001517772674,1.9207906596973536,-5.3996477972298855
1772456733123961300,0.75396142578125,-7.291340664997697,2.1714050044223665,-4.7163598283648485
1772456733133981400,0.7639814453125,-7.228070846614242,2.1514438741505146,-3.280058612501621
1772456733144000500,0.77400048828125,-6.806007463815808,1.924731214016676,-1.691764608054608
1772456733154020600,0.7840205078125,-5.987834639164805,1.5917819926932453,-0.12165741768330335
1772456733164039400,0.794039306640625,-5.044476514965296,0.9174985835388302,0.9897716464586556
1772456733174059300,0.804059326171875,-4.2929000227719545,-0.0499599626943469,1.7753141211397945
1772456733184078300,0.814078369140625,-3.846898715025186,-1.0599150038734078,2.249986081445217
1772456733194098400,0.824098388671875,-3.5916666473716496,-2.069347774744034,1.9381402922965585
1772456733204117500,0.834117431640625,-3.0556974839299915,-2.5976319366410374,1.0351245537489653
1772456733214137600,0.8441376953125,-2.1431232050508258,-2.5778654521584508,0.2680832928549498
1772456733224156400,0.854156494140625,-0.8413853579342365,-2.3229661235906183,0.07709529544450343
1772456733234176500,0.864176513671875,0.672002604740858,-2.053053934808075,0.4981839149266481
1772456733244195600,0.874195556640625,2.0427982059925793,-1.8019953534469006,1.1830296346276998
1772456733254215400,0.88421533203125,3.1790526454418897,-1.4833184031039475,1.8682576316446065
1772456733264234500,0.894234375,4.054636625576019,-1.050185783150047,2.4059873750180003
1772456733274254600,0.904254638671875,4.553490402588248,-0.6828552765361964,2.6821815666794775
1772456733284274700,0.914274658203125,4.857344754591584,-0.554292755639553,2.4074045483395454
1772456733294293500,0.92429345703125,5.261710568135976,-0.530896390222013,1.6232310239240526
1772456733304313300,0.934313232421875,5.766632851406931,-0.32167949315980077,0.6135628368623555
1772456733314332400,0.94433251953125,6.446998795345425,0.05762216788530349,-0.24409984826445577
1772456733324352500,0.9543525390625,6.963785119411349,0.4574725498318672,-0.5782532577458769
1772456733334371600,0.96437158203125,7.349426358741521,0.7890529670201242,-0.42498767274729904
1772456733344391700,0.9743916015625,7.66426036992073,0.9704004449039697,0.20367219548188148
1772456733354410500,0.984410400390625,7.824211862424016,1.0002771122515202,1.079409028090164
1772456733364430300,0.994430419921875,7.5920999735951415,0.8467708503648638,1.7159034624025225
1772456733374449400,1.004449462890625,7.005978247496485,0.6670508275523781,1.5655260000608862
1772456733384469500,1.014469482421875,6.204570679685473,0.4930038819402456,0.6830594938714056
1772456733394488300,1.02448828125,5.135862420764565,0.34095804799497126,-0.3716380676146597
1772456733404508400,1.03450830078125,4.036026617652178,0.20631372296661138,-1.1705469504777342
1772456733414527200,1.04452734375,3.083871439012885,0.19430325943827628,-1.3512576648280024
1772456733424547000,1.054547119140625,2.4026000706672668,0.2969268908277154,-1.0765691284891217
1772456733434566100,1.064566162109375,1.6289993781924246,0.23696868121027945,-0.7611032491471618
1772456733444586200,1.074586181640625,0.39369653549194333,-0.1765849396571517,-0.9029010991919785
1772456733454605300,1.084605224609375,-1.624713079175353,-0.9696776835873723,-1.3493611835569141
1772456733464625400,1.09462548828125,-4.659696276378631,-1.8325486048817634,-1.5992409303970634
1772456733474644200,1.104644287109375,-7.547498030802607,-2.3613652662202713,-1.3455544847503305
1772456733484664300,1.114664306640625,-8.973949468302726,-2.320595741197467,-0.7162230008699
1772456733494683400,1.124683349609375,-8.858068003672361,-1.6847665658608078,-0.08521737323217093
1772456733504703200,1.134703125,-7.887953389972448,-0.6954445628657937,0.04470182297043502
1772456733514722300,1.144722412109375,-6.896348244476318,0.2308446453720331,-0.44025472691878675
1772456733524742400,1.154742431640625,-5.964600478571653,1.133209372664988,-1.0134520895145833
1772456733534761200,1.16476123046875,-5.001614109316468,2.136875250571966,-1.430038063815236
1772456733544781300,1.17478125,-4.169753535574674,2.7539950492635366,-1.6420543823376297
1772456733554800400,1.18480029296875,-3.683680329680443,2.5627964778423307,-1.526855200883001
1772456733564820200,1.1948203125,-3.5476743609100576,1.7524349114641546,-1.3198551030874253
1772456733574839300,1.20483935546875,-3.487247072476148,0.7227151393681764,-1.1636822523400188
1772456733584859400,1.214859375,-3.3916672221183775,-0.31277707864940163,-1.2291682854682207
1772456733594878200,1.224878173828125,-3.3704631060481067,-1.2202262695997952,-1.292218762012571
1772456733604898300,1.234898193359375,-3.3415859711319205,-1.8897516705721615,-0.7081171435646713
1772456733614917400,1.24491748046875,-2.9734809730142353,-2.011252728649974,0.38071065106019375
1772456733624937200,1.254937255859375,-2.354657000753283,-1.8666449357509611,1.180763881652802
1772456733634956300,1.264956298828125,-2.1072475895494223,-1.8967960361257195,1.3757890256248413
1772456733644976400,1.274976318359375,-1.8177414963722227,-1.6351242908135055,1.3815546034142374
1772456733654995200,1.2849951171875,-1.2627169193267822,-1.047963577055931,1.4203293013580143
1772456733665015300,1.295015380859375,-0.48157355638742444,-0.519912201001495,1.2621255293048919
1772456733675034400,1.305034423828125,0.4680167401999235,-0.2802329456582665,0.9968774598758667
1772456733685054200,1.31505419921875,1.5366367363154887,-0.2995037555783987,0.9678564595095813
1772456733695073300,1.3250732421875,2.654684487944841,-0.37448067062944174,1.0373260093159973
1772456733705093400,1.33509326171875,3.8954847590178248,-0.3412231286719441,1.045764167315513
1772456733715112200,1.3451123046875,5.113325010263919,-0.15075696317851542,1.090190169019252
1772456733725132300,1.35513232421875,5.982981938436627,0.10419950240403413,1.0657280010011045
1772456733735151400,1.3651513671875,6.6605193809509275,0.648432636322081,0.7656693149536847
1772456733745171200,1.375171142578125,7.144550267362594,1.3910460698589682,0.3536602931797504
1772456733755190300,1.385190185546875,7.4478183439105745,1.9692381720021366,-0.009582359598577022
1772456733765210400,1.39521044921875,7.615479680138826,2.2592428623512384,-0.014589520236104726
1772456733775229200,1.405229248046875,7.610758496835827,2.3256483484119177,0.2039315040051937
1772456733785249300,1.415249267578125,7.427704945686459,2.1835262348487974,0.5174228684037924
1772456733795268400,1.425268310546875,7.190104396313428,1.936040251277387,0.7155205516889691
1772456733805288200,1.4352880859375,6.904504662925005,1.763773467080295,0.7044127360887825
1772456733815307300,1.445307373046875,6.372419062918424,1.5023130264312028,0.6221089122157544
1772456733825327400,1.455327392578125,5.590988115209341,1.0829612406790257,0.6814053699888288
1772456733835346200,1.46534619140625,4.450663065320253,0.7007037985682487,0.8737512117490172
1772456733845366300,1.4753662109375,3.098757457977533,0.5350891657367348,0.7422035375617444
1772456733855385300,1.48538525390625,2.18326875295639,0.9211214502111077,-0.011035919407755135
1772456733865405400,1.495405517578125,1.9544342783629893,1.7258748213186859,-0.6170066937059163
1772456733875424500,1.505424560546875,1.7773422659665346,2.3979592591241,-0.4914350251883268
1772456733885444000,1.515444091796875,0.5240425788044929,2.1348650797933337,0.4484916632577777
1772456733895463200,1.525463134765625,-1.9390601836204528,0.4431707604959607,1.3788222558408976
1772456733905483300,1.535483154296875,-4.6589422431409355,-1.5513327856659889,1.2137216369461268
1772456733915502300,1.54550244140625,-6.3773454134047025,-2.1915748090088365,-0.44922450757697224
1772456733925522400,1.5555224609375,-6.748533179968595,-1.2859198079988359,-2.127617885144055
1772456733935541500,1.56554150390625,-6.759746647900343,0.03752425949126482,-2.597706755442917
1772456733945561000,1.57556103515625,-7.013863447788357,1.104506717532873,-2.3415973204329608
1772456733955580200,1.585580078125,-7.453800340929627,1.8982801372036338,-1.9584964132353662
1772456733965600300,1.595600341796875,-7.85464148747921,2.248085800781846,-1.85558753516376
1772456733975619300,1.605619384765625,-8.52622791263461,1.6144313391357659,-1.557589507973194
1772456733985639400,1.615639404296875,-9.241033301791548,0.32632951092272994,-1.076938327127695
1772456733995658500,1.625658447265625,-9.109965373945236,-1.0082043981194495,-0.5931762477200478
1772456734005678000,1.635677978515625,-8.174242274668812,-2.0852970390260217,-0.2706790084365755
1772456734015697200,1.645697265625,-6.788166102176905,-3.0248037484943864,-0.32827925675101577
1772456734025717200,1.65571728515625,-5.061583132588863,-4.017935080644488,-0.5341187863346188
1772456734035736300,1.665736328125,-2.9923008242964744,-4.837487669216096,-0.5887150305274874
1772456734045756400,1.67575634765625,-1.4409493339300155,-5.147054261386394,-0.49703869041427967
1772456734055775200,1.685775146484375,-0.5641711755752563,-4.840576575142145,-0.19515958400666714
1772456734065795000,1.695795166015625,-0.32113048097491265,-4.219054157577455,0.24418749001529066
1772456734075814100,1.705814208984375,-0.6808131031841039,-3.5557486540332435,0.5074421206047758
1772456734085834200,1.715834228515625,-0.8121972573727368,-2.754962725251913,0.375023143475689
1772456734095853300,1.725853271484375,-0.44258127017021176,-2.0455974813222886,0.24742577781677244
1772456734105873400,1.735873291015625,0.4423229114949703,-1.4323831656366586,0.4325898183140903
1772456734115892200,1.745892333984375,1.7744851229697465,-0.9230863205432891,1.0104694935072214
1772456734125912000,1.755912109375,3.218726484182477,-0.41291619974672794,1.4714052624702452
1772456734135931100,1.76593115234375,4.505708660715818,0.014530629655718802,1.6711586040079593
1772456734145951200,1.775951171875,5.562725312799215,0.3385901498198509,1.4748350907884538
1772456734155970300,1.78597021484375,6.435317709901929,0.692107527397573,1.1586079447504132
1772456734165990400,1.795990478515625,7.068888000395893,1.1524331285730003,0.8618670049488544
1772456734176009200,1.80600927734375,7.56998517242074,1.7566010912328958,0.7529338250864297
1772456734186029300,1.816029296875,7.833093672537803,2.325325400067866,0.8348261455491185
1772456734196048400,1.82604833984375,7.770405453434586,2.6493898886680602,1.0485106895446776
1772456734206068200,1.836068115234375,7.264646719339489,2.6722245285496116,1.1933486379377543
1772456734216087300,1.84608740234375,6.364049293980002,2.6141145771473644,1.117723926502466
1772456734226107400,1.856107421875,5.489025870338082,2.930250318574905,0.8258207090556621
1772456734236126200,1.866126220703125,4.569961060395837,2.972778377702832,0.14332045650221406
1772456734246146300,1.876146240234375,3.799242645359039,2.439411505714059,-0.7536744143206626
1772456734256165400,1.886165283203125,3.2835955544561144,1.8064803899064659,-1.2532502950623632
1772456734266185200,1.896185302734375,3.2548931915849444,1.6049714368730783,-1.7314388851866125
1772456734276204300,1.906204345703125,3.0773189486294985,0.8385030804961919,-2.1194731571331618
1772456734286224400,1.916224365234375,3.218278155893087,-0.31223493459671736,-2.5367344003468753
1772456734296243200,1.9262431640625,2.2300001089930532,-0.9445487952888011,-2.59923060400933
1772456734306263300,1.93626318359375,1.119745787718892,-1.2617980509161948,-2.088605725182593
1772456734316282400,1.946282470703125,-0.6861053643733263,-2.0071870866462587,-0.14231164478585123
1772456734326302200,1.95630224609375,-3.673106913217902,-2.54761702888906,0.762965462822467
1772456734336321300,1.9663212890625,-6.464981026759744,-2.256670089253783,-0.28941227741390463
1772456734346341400,1.97634130859375,-8.424060500580072,-1.583386212530732,-1.6303259506210683
1772456734356360200,1.986360107421875,-9.017908437016606,-0.5613564104154706,-2.204984033419192
1772456734366380300,1.99638037109375,-8.49657394812703,0.6472478104516863,-2.2603119528874753
1772456734376399400,2.0063994140625,-7.460222482931614,1.6124854657649994,-2.3196394633859394
1772456734386419200,2.016419189453125,-6.390691217190027,2.425093642026186,-2.0027116947978736
1772456734396437800,2.026437744140625,-5.649558962121605,2.8318276460066434,-1.5432506014972924
1772456734406457600,2.03645751953125,-5.578113436067104,2.452132455599308,-1.2861240983992814
1772456734416476700,2.0464765625,-6.220024853926897,1.3639300993964074,-1.1206657521080226
1772456734426496800,2.056496826171875,-6.835733324515819,0.14578268189728258,-0.893490808224678
1772456734436515600,2.066515625,-6.649729106867313,-0.5573828306093812,-0.8860990905381738
1772456734446535700,2.07653564453125,-5.296462148043513,-0.8198065633326769,-0.8953090366277843
1772456734456554800,2.0865546875,-3.2689667251229286,-1.0926204649060964,-0.4316482266150415
1772456734466574600,2.09657470703125,-1.459853940886259,-1.6549153252154587,0.9087224988218396
1772456734476593700,2.10659375,-0.10763093815743922,-2.0653496450185775,2.178080828924477
1772456734486613800,2.11661376953125,0.6463385866522788,-2.1440178158029912,2.388208703351766
1772456734496632600,2.126632568359375,1.0816899055689573,-1.9476120311275122,1.8477473430573939
1772456734506652700,2.136652587890625,1.7354893296211957,-1.6945380182906984,1.3385773392140865
1772456734516671700,2.146671630859375,2.6647791809797283,-1.4924123946636914,1.2736883951961993
1772456734526691600,2.156691650390625,3.5129788951039314,-1.4207041260197757,1.5524001226365565
1772456734536710700,2.166710693359375,4.0253012254983185,-1.3175532558858394,1.834127836897224
1772456734546730800,2.176730712890625,4.307947369778156,-1.0277055096641183,2.024202518855035
1772456734556749600,2.18674951171875,4.4994016695261,-0.7260600658819079,2.020337513989955
1772456734566769700,2.196769775390625,4.744788634991646,-0.42322979622930285,1.8155752582490443
1772456734576788700,2.206788818359375,5.127724122494459,-0.05618745890706777,1.5698387486934662
1772456734586808600,2.21680859375,5.593895527088642,0.366402870374918,1.253374359833449
1772456734596827600,2.22682763671875,6.0404404401928184,0.7263213471665978,1.0318187902018428
1772456734606847700,2.23684765625,6.434377798703313,1.1106158480629325,1.0606731287643312
1772456734616866600,2.246866455078125,6.6759712171047925,1.5295815571069717,1.222399229724705
1772456734626886700,2.25688671875,6.744390088814496,1.3885884475737809,1.1338854452956466
1772456734636905700,2.26690576171875,6.465408312261104,1.1708221872225404,1.200503478128463
1772456734646925600,2.276925537109375,6.0701277224481105,1.0323220635488628,1.4160185985520481
1772456734656944600,2.286944580078125,5.649277222570777,1.046065342219174,1.4151152199715376
1772456734666964700,2.29696484375,5.066833892723918,0.9359452175945043,1.195208951916918
1772456734676983600,2.306983642578125,4.285052231881022,0.6723015876874328,1.0153133533418177
1772456734687003600,2.317003662109375,3.502320722967386,0.4334624364301562,0.6353732482627034
1772456734697022700,2.327022705078125,2.542305478477478,0.22155366993546485,-0.2684094560693949
1772456734707042800,2.337042724609375,1.1296937657594681,-0.09237024066150187,-1.1175964276652783
1772456734717061600,2.3470615234375,-1.023752095863223,-0.5906041322097182,-0.9053314681440592
1772456734727081500,2.35708154296875,-3.9366292548328636,-1.4457196170717477,-0.1913052466660738
1772456734737100500,2.3671005859375,-6.883216375702619,-2.7098858584240078,0.07165346971675753
1772456734747120600,2.37712060546875,-9.331297510084509,-3.7317569628462195,-0.5800304600188508
1772456734757139700,2.3871396484375,-10.387267283463478,-3.78803210003674,-1.4196189611315726
1772456734767159800,2.397159912109375,-10.048062216615676,-2.6891701103925705,-1.6887120886161922
1772456734777179000,2.407178955078125,-9.208713332945107,-1.210597440510988,-1.4463973702028392
1772456734787198500,2.417198486328125,-8.778356169053911,0.2726157486528158,-1.61175174466297
1772456734797217500,2.427217529296875,-8.969358633381129,1.925987936079502,-2.7797587283343077
1772456734807237600,2.437237548828125,-9.442930085098743,3.421899571035802,-3.9515661272019145
1772456734817256700,2.447256591796875,-9.857505742490291,3.987608331441879,-4.3119931380376215
1772456734827276800,2.45727685546875,-9.819288532298803,3.2482553610056635,-3.719538117264211
1772456734837295900,2.4672958984375,-9.048544982820749,1.6811770169362426,-2.4207637961283326
1772456734847315500,2.4773154296875,-7.440593068832158,0.1143923951163888,-1.2202717892419546
1772456734857334500,2.48733447265625,-5.198942854055762,-1.108581711886823,-0.23873561781756578
1772456734867354600,2.497354736328125,-2.6344541853427885,-2.1640981885403394,0.7863656276322901
1772456734877373700,2.507373779296875,-0.27195523891747,-3.1979525762230154,1.6879231301955877
1772456734887393800,2.517393798828125,1.4889339048981665,-4.2198672275260085,1.9510650941908358
1772456734897412600,2.52741259765625,2.577440504744649,-4.97093080176115,2.0044532777681945
1772456734907432400,2.537432373046875,3.3832775794357057,-4.961570268219709,1.7259684909515083
1772456734917451500,2.547451416015625,3.8840585251182316,-4.242144233524799,1.2616370151355862
1772456734927471600,2.5574716796875,3.9343332528501747,-3.3614141226738687,0.910774316785112
1772456734937490700,2.56749072265625,3.900751301243901,-2.586711021915078,0.8248481376964598
1772456734947510800,2.5775107421875,4.126503591912985,-1.6907310272231697,1.1384843904584645
1772456734957529600,2.587529541015625,4.625404715198278,-0.8778146617956459,1.3118503680691123
1772456734967549400,2.597549560546875,5.096086875215173,-0.3497263147316873,1.146495847478509
1772456734977568500,2.607568603515625,5.4932636540383095,0.021322920144349337,0.7569124463938176
1772456734987588600,2.617588623046875,5.995848434272408,0.3381431367047131,0.1966898623138666
1772456734997607700,2.627607666015625,6.6268170178353785,0.6093173082470893,-0.4158902471214533
1772456735007627800,2.637627685546875,7.223199441185593,0.8323352055162191,-0.8399743220925331
1772456735017646600,2.647646484375,7.504701676127314,0.9897218159675597,-1.0329222213990985
1772456735027666700,2.657666748046875,7.452748201528191,1.100991110627353,-1.0329992321580648
1772456735037685800,2.667685791015625,7.252508537778258,1.098406647092104,-0.826349555235356
1772456735047705600,2.67770556640625,7.127310378748178,1.2715855776980518,-0.47702626834660766
1772456735057724700,2.687724609375,7.213672903427481,1.5059952220752835,-0.07571604298055172
1772456735067743500,2.697743408203125,7.150557983344793,1.515467545428127,0.4579385599084198
1772456735077763600,2.707763671875,6.6874740233719345,1.3483794790431856,1.1049497851252554
1772456735087783700,2.71778369140625,6.097402682864666,1.2326093658328057,1.4815240670330823
1772456735097802800,2.727802734375,5.564428025063872,1.1632105431750417,1.4906243422031402
1772456735107821800,2.73782177734375,5.086761412987113,1.0927183723226188,1.0846728669025003
1772456735117841700,2.747841552734375,4.434320417806506,0.9842819630011915,0.15482070548608898
1772456735127860500,2.757860595703125,3.4010780245423313,1.013595443508029,-0.9489115205429494
1772456735137880600,2.767880615234375,1.5587708267122506,0.9340124959662556,-1.2727614896096289
1772456735147899600,2.777899658203125,-1.4061556684464216,0.0867684751316905,-0.6268886207729578
1772456735157919700,2.787919677734375,-4.6413463806957,-1.2210498609423637,0.23397782883122561
1772456735167938800,2.797938720703125,-7.511960268953442,-2.177912778881192,0.24558014995008706
1772456735177958700,2.807958740234375,-9.601084172791243,-1.6833415014937518,-0.7144962501425296
1772456735187977500,2.8179775390625,-10.210286914747952,-0.4963569917604327,-1.277601038595289
1772456735197997600,2.82799755859375,-10.45891446956992,0.2579910109728575,-1.3059358833283186
1772456735208016600,2.8380166015625,-10.752240413296223,0.8591220901548862,-1.7794189261101185
1772456735218036700,2.84803662109375,-10.751662905669212,1.8151520644009111,-2.7567691901519895
1772456735228055800,2.858055908203125,-10.3379523406744,2.8589205278545617,-3.670233403608203
1772456735238075600,2.86807568359375,-9.753342772704363,3.1567195253416895,-4.016400710684061
1772456735248094500,2.878094482421875,-9.08649565103054,2.4042358551755547,-3.6997669566065072
1772456735258114600,2.888114501953125,-8.306091708281636,1.0625587963804601,-3.084853728048503
1772456735268133600,2.898133544921875,-7.2959484510540955,-0.14078151260912417,-2.3770257766887544
1772456735278153700,2.90815380859375,-5.795307157227397,-0.8836386917740106,-1.8493553627759216
1772456735288172800,2.9181728515625,-4.081952502524852,-1.5617247080817818,-1.5465908518359064
1772456735298192600,2.928192626953125,-2.399065466800332,-2.2891613230139014,-1.0002383876763283
1772456735308211500,2.93821142578125,-1.1127116512984037,-3.036815088805556,0.038506183200702065
1772456735318231600,2.9482314453125,-0.3481383148878813,-3.5695758115947243,0.829319657087326
1772456735328250600,2.958250732421875,-0.06532616639137268,-3.694854926906526,1.0271999712947755
1772456735338270700,2.968270751953125,0.010682137534022331,-3.3558260934084654,0.7964530141435563
1772456735348289800,2.978289794921875,0.24581249740123748,-2.992399900756776,0.5077751519514248
1772456735358309600,2.9883095703125,0.780702633434534,-2.6975992083027958,0.4057263247752562
1772456735368328400,2.998328369140625,1.5967758554577827,-2.5001433300524947,0.567993071950972
1772456735378348500,3.0083486328125,2.6268554007768627,-2.3867203644901513,0.7799329642362892
1772456735388367600,3.01836767578125,3.9018057787328955,-2.06889316284433,0.9551321486234664
1772456735398388700,3.028388671875,5.234498736083507,-1.5296473158195614,1.0566771909959614
1772456735408407600,3.038407470703125,6.413351377287507,-1.0202148616477846,1.1473971802324057
1772456735418427400,3.048427490234375,7.212881460788846,-0.49546968753188847,1.0172854571323842
1772456735428446500,3.058446533203125,7.789856003835797,-0.029670915642380714,0.7556159768424928
1772456735438466600,3.068466552734375,8.133814402690529,0.179249482691288,0.6013329584296793
1772456735448485600,3.078485595703125,8.237002389964461,0.26985855889916416,0.49322088569179173
1772456735458505700,3.088505615234375,8.203946508058905,0.46694443479329345,0.5252363916989415
1772456735468524500,3.098524658203125,8.035477362579106,0.7022805463656783,0.7716527732774615
1772456735478544400,3.10854443359375,7.67884536011219,0.8575719381034373,1.0743550326362252
1772456735488563500,3.1185634765625,7.222143794652819,1.069769458411634,1.308808808416128
1772456735498582500,3.12858251953125,6.609874650862813,1.3327546244099735,1.490803790423274
1772456735508602600,3.1386025390625,5.933157292559742,1.481141059064865,1.5693084412090479
1772456735518621400,3.148621337890625,5.27115819543898,1.4674191154435277,1.3649268553487957
1772456735528641500,3.1586416015625,4.510954160153865,1.347203713262081,0.8587488729283214
1772456735538660600,3.16866064453125,3.83931921968162,1.3115791499122977,0.0777851043395698
1772456735548680400,3.178680419921875,3.1645541644901036,1.2800529617920517,-0.7466846284985542
1772456735558699500,3.188699462890625,2.306249820458889,1.7448711982116103,-1.1622377526201306
1772456735568719600,3.1987197265625,0.6239642577588558,1.753156211476028,-0.2917520454730838
1772456735578738400,3.208738525390625,-2.1138737296909094,0.4358168906018138,0.9866419701308011
1772456735588758500,3.218758544921875,-5.266949637833237,-0.7987450706034899,1.1509878982007502
1772456735598777600,3.228777587890625,-8.14888396152854,-1.1822273783341049,-0.19042685639634727
1772456735608797400,3.23879736328125,-9.863007262516021,-1.0873074531897902,-1.699940169595182
1772456735618816500,3.24881640625,-10.114608864712714,-0.70156859870404,-2.3351360154643652
1772456735628836600,3.258836669921875,-8.999490152272582,-0.3399100002467632,-2.233451418490708
1772456735638855400,3.26885546875,-7.8393609162390225,-0.20301994211822746,-2.070162598258257
1772456735648875500,3.27887548828125,-7.325088620820641,0.4779322772756219,-2.2737989187091587
1772456735658894600,3.28889453125,-6.947568728625774,1.4927692452773451,-2.2665686751946805
1772456735668914400,3.29891455078125,-6.905692411404848,1.491027370046079,-1.5205027631163597
1772456735678933500,3.30893359375,-7.198114684289694,0.4714443765610456,-0.16398301304169
1772456735688953600,3.31895361328125,-7.342790866249799,-0.8184563177675008,0.7414191822510212
1772456735698972400,3.328972412109375,-6.901550489294529,-1.7300667200505733,1.0344087336298078
1772456735708992500,3.338992431640625,-5.750619874238968,-2.1655290981262922,0.9837634920850395
1772456735719011600,3.349011474609375,-4.235736120048165,-2.318116491602361,0.6683647596951574
1772456735729031700,3.35903173828125,-2.6397061145216223,-2.4307439228728414,0.3644820583801716
1772456735739050800,3.36905078125,-1.1013158125370741,-2.4453973021253943,0.3167863873559981
1772456735749070600,3.379070556640625,0.5786556280016899,-2.2968875333517786,0.47965427876263855
1772456735759089400,3.38908935546875,2.186238708677888,-2.1602938278213144,0.7204583003520966
1772456735769109500,3.399109619140625,3.477395540547371,-1.9828964027374982,1.1005490659482777
1772456735779128600,3.409128662109375,4.208904227223992,-1.8222300399631262,1.4890031707420945
1772456735789148700,3.419148681640625,4.498457666674256,-1.6919810272842644,1.7623808436781168
1772456735799167700,3.429167724609375,4.654224566969275,-1.425483469250798,1.7761612394884227
1772456735809187300,3.439187255859375,4.89668483133316,-0.96803137768507,1.5909516793489455
1772456735819206400,3.449206298828125,5.280928478825092,-0.4213230858251452,1.2326733709797262
1772456735829226500,3.4592265625,5.729643721705675,0.1202414134055376,0.7102506484620272
1772456735839245600,3.46924560546875,6.154771752771735,0.5661056507691741,0.21410130810290573
1772456735849264600,3.4792646484375,6.556519492772221,0.9287918387085199,-0.18685776573792098
1772456735859284700,3.48928466796875,6.974480700948834,1.1866527935609221,-0.4547972662080079
1772456735869303600,3.499303466796875,7.281831662896275,1.3780799130409955,-0.6699162999860941
1772456735879323400,3.509323486328125,7.494149886974692,1.3254258889570831,-0.8960278524216264
1772456735889342500,3.519342529296875,7.347106391361355,1.0799570904269813,-1.0770992898430674
1772456735899362600,3.529362548828125,6.939000806766748,0.8318295940816401,-0.9940344915349036
1772456735909381600,3.539381591796875,6.363627853697538,0.6789280200898646,-0.7254952716059982
1772456735919401700,3.549401611328125,5.775533366221189,0.8828101319953798,-0.22578443937301634
1772456735929420500,3.559420654296875,5.020551449498534,1.4969889087989925,0.5073449073079973
1772456735939440400,3.5694404296875,4.070394751200079,2.059701702259481,1.1451860069889575
1772456735949459500,3.57945947265625,3.143544109687209,2.0531372291773557,0.9040063570201397
1772456735959479600,3.5894794921875,2.5641981613337994,1.5632345281228421,-0.3451122450649738
1772456735969498600,3.59949853515625,2.3476398154675957,0.8586109257623553,-1.823819062720239
1772456735979518500,3.6095185546875,1.6103139669448137,-0.20307897882908582,-2.544628660728037
1772456735989537500,3.61953759765625,-0.29921091011166573,-1.5918325538367033,-2.097850231128931
1772456735999557400,3.629557373046875,-2.834353657352924,-3.009904870048165,-1.0297038438744843
1772456736009576400,3.639576416015625,-5.236493124771118,-3.6348870726779103,0.1004850119255483
1772456736019596500,3.649596435546875,-6.752948658323287,-3.1587498621255157,0.18947481636852026
1772456736029615600,3.65961572265625,-7.364323483622074,-2.0792548362523315,-0.004687427163869142
1772456736039635500,3.669635498046875,-7.344947752022743,-0.9626014615908265,0.1912952367287129
1772456736049654500,3.679654541015625,-8.01805276504755,-0.10767419277727604,0.6469514578536153
1772456736059674600,3.689674560546875,-9.454283253762126,0.8718927244007587,-0.04407411952614784
1772456736069693400,3.699693359375,-10.032275449419021,2.1364429966345426,-1.6379823105931282
1772456736079713500,3.709713623046875,-9.794291453686355,2.8163407385393975,-2.5449913565605877
1772456736089732600,3.719732666015625,-8.745990022978186,2.450985039129853,-2.4595845251709223
1772456736099752400,3.72975244140625,-7.982908386430144,1.01723964522928,-1.4695406376421452
1772456736109771500,3.739771484375,-6.9534390819638965,-0.33115093972980975,-0.5057750276427716
1772456736119791600,3.74979150390625,-5.598291131699085,-1.2802458540156483,0.07891096656434238
1772456736129810700,3.759810791015625,-3.775952370664477,-2.0972817835912108,0.6603126784037798
1772456736139829800,3.769829833984375,-1.5874141528725623,-2.3408125997960565,1.4300868713930248
1772456736149849300,3.779849365234375,0.03182604784965515,-1.9846774409353731,1.3789353608265518
1772456736159868400,3.789868408203125,-0.5672726487219333,-1.5022531129375098,0.45541788232438263
1772456736169888500,3.799888427734375,-2.403276362493634,-0.7150140634715557,-0.8136935603450983
1772456736179907600,3.809907470703125,-3.7892952518403527,0.014274609068036079,-1.6832307345956563
1772456736189927700,3.819927734375,-4.124261950466036,0.3329208720117807,-1.663325280033797
1772456736199946800,3.82994677734375,-3.049437254491448,0.16593948087170718,-0.7571219244260341
1772456736209966300,3.83996630859375,-1.1522113025158642,-0.27967764986306426,0.6741094408269971
1772456736219985400,3.8499853515625,1.0544465093344448,-0.5606082223966717,1.9424051101341842
1772456736230005500,3.860005615234375,3.1351947990149256,-0.7640113186135887,2.7213115078017114
1772456736240024600,3.870024658203125,4.711167520418763,-0.9495495261855423,3.037157326371968
1772456736250044700,3.880044677734375,6.022382805454731,-1.0107666498228907,2.957745059221983
1772456736260063700,3.890063720703125,6.9908344543784855,-0.9119194682322442,2.631696703328192
1772456736270083300,3.900083251953125,7.472404503634571,-0.7726419304452836,2.1375828143194315
1772456736280102400,3.910102294921875,7.535702379068732,-0.5316114066235721,1.630270713302493
1772456736290122500,3.92012255859375,7.390953716394304,-0.240983908201009,1.348654058200866
1772456736300141600,3.9301416015625,7.0687617436677215,-0.14410627311766147,0.8763083488859236
1772456736310161700,3.94016162109375,6.611666210454702,0.004407879570126534,-0.0864455450539477
1772456736320180500,3.950180419921875,5.99578822851777,0.43266339500695467,-0.7044112747840583
1772456736330200300,3.960200439453125,5.69026272843182,0.603389087241888,-0.7154199408587067
1772456736340219400,3.970219482421875,5.601040138146281,0.4570703987717628,-0.527497212770395
1772456736350239500,3.980239501953125,5.392148381385207,0.06372545319646597,-0.23963713323455302
1772456736360258600,3.990258544921875,5.146771352791786,-0.28051790007948874,0.24109010852184146
1772456736370278700,4.000278564453125,4.929685768181085,-0.38951778850257396,0.7158620586030184
1772456736380297500,4.01029736328125,4.841105567452312,-0.38550650703459977,1.0961776459310204
1772456736390317600,4.020317626953125,4.813880875918269,-0.3865422798231244,0.9873991451736539
1772456736400336000,4.0303359375,4.178841681915522,-0.4953942842081189,0.272241873839125
1772456736410355000,4.04035498046875,2.4610335549354554,-0.6300120134904981,-1.0346190884448587
1772456736420374800,4.050374755859375,-0.44792380024194717,-0.7769061637610196,-2.1050819359481334
1772456736430393600,4.0603935546875,-4.1638077789127825,-1.138930965182185,-2.5294766843035816
1772456736440413700,4.07041357421875,-7.685861376354098,-1.6908870945677161,-2.5899311530053613
1772456736450432800,4.080432861328125,-9.912082551330327,-2.1991469978287816,-2.620381820848584
1772456736460452900,4.090452880859375,-10.07442415384054,-2.3351377690300343,-2.083130070250481
1772456736470472000,4.100471923828125,-9.30387992632687,-2.1154709357544776,-0.7247004679664969
1772456736480491800,4.11049169921875,-8.783384226348996,-1.6225465487912296,0.5172532109253108
1772456736490510600,4.120510498046875,-8.70023598754108,-0.8357686870962381,1.0035917897574602
1772456736500530700,4.13053076171875,-8.969302519279719,0.5341971853330731,0.35797479537799953
1772456736510549800,4.1405498046875,-9.500047226071358,2.132142084570229,-0.6282990720927715
1772456736520569900,4.15056982421875,-9.217216372874379,3.5224259378850458,-1.320108347196132
1772456736530589000,4.1605888671875,-8.5268065893054,3.5553067554846405,-1.0446097365833817
1772456736540608800,4.17060888671875,-7.706247746300697,2.1560566286429763,-0.26060411608070133
1772456736550627600,4.180627685546875,-6.762203393402695,0.30140929693877694,0.17926964869648218
1772456736560647700,4.190647705078125,-5.189244466862082,-1.1514476246669887,0.39667029060572384
1772456736570666800,4.200666748046875,-2.6672312503069637,-2.0384075698181987,0.6399057771258055
1772456736580686800,4.210686767578125,0.3142126644104719,-2.3992823244214057,0.8625107096798718
1772456736590706000,4.220705810546875,2.981933744060993,-2.5967040081411596,1.2810349585667251
1772456736600726000,4.23072607421875,4.983644152861833,-2.6049764541849494,1.7242703087314963
1772456736610744800,4.240744873046875,5.729246831342578,-2.3364175797075033,1.9092529282473027
1772456736620764700,4.2507646484375,5.061138895952701,-1.8554419892132281,1.9086185758665204
1772456736630783700,4.26078369140625,4.162271655386686,-1.4045096548050642,1.9671322857640683
1772456736640802800,4.270802734375,2.9615128873229026,-1.3589172396704554,2.0548253283947706
1772456736650823000,4.280822998046875,1.7892846326947212,-1.2534022707536816,2.0830480910554527
1772456736660841700,4.290841796875,1.0837380702704191,-0.8495360772944986,1.723073500162363
1772456736670861800,4.30086181640625,1.0801982057064772,-0.31920418908745046,0.6966366952598094
1772456736680881000,4.310880859375,1.873046034964919,0.24939284010604024,-0.6984419911161065
1772456736690900700,4.320900634765625,3.3470120878338814,0.823361040943861,-1.916231242827326
1772456736700919800,4.330919921875,4.715550850069523,1.1398191461935638,-2.673422213901579
1772456736710940000,4.34093994140625,6.0257227635324,1.5134671653911471,-3.0206650412544604
1772456736720958700,4.350958740234375,7.027790850853919,1.7658222163036466,-2.721150179760158
1772456736730978800,4.360978759765625,7.6691995798885815,2.0693810924917457,-1.9432294321291148
1772456736740998000,4.370997802734375,8.174352749305964,2.413657763515413,-0.9126105192363262
1772456736751017700,4.381017822265625,8.550634039616584,2.6147476143538952,0.16375972567982972
1772456736761036800,4.391036865234375,8.913916147622466,2.5568404920473693,1.3925126352801918
1772456736771057000,4.401056884765625,8.867928303429483,2.2682921379864216,2.6438413146302104
1772456736781075700,4.41107568359375,7.891071814253926,1.741893059183657,3.3503418167784806
1772456736791095800,4.421095703125,6.584740794128179,1.4442621117398142,3.1025299622535703
1772456736801115000,4.431114990234375,5.362645223525166,1.345971248857677,2.1152888571858406
1772456736811134700,4.441134765625,3.955443260896206,1.3163073474779725,1.1407165334247051
1772456736821153800,4.45115380859375,2.40654793151021,1.2227461434662341,0.2463399188088253
1772456736831172600,4.461172607421875,0.8885925147891044,1.3283461603179574,-0.8294415299013257
1772456736841192700,4.471192626953125,-0.5175052859902382,1.5612196811690926,-1.7158290819920599
1772456736851211800,4.481211669921875,-2.1429203759551045,1.138451949493587,-2.0952119915798306
1772456736861231900,4.49123193359375,-4.384160256364941,-0.10981295837163925,-2.1535218494683503
1772456736871251000,4.5012509765625,-6.556275162622332,-1.455318343283236,-1.8668145932294427
1772456736881270800,4.511270751953125,-8.167223335817456,-2.2295181706950067,-1.2276982129156588
1772456736891289600,4.52128955078125,-8.446621876478195,-1.8533751198112964,-0.9701130062647163
1772456736901309700,4.531309814453125,-7.626096351221204,-0.5202221437335014,-0.5893013425154611
1772456736911328800,4.541328857421875,-6.919727366498113,0.7470286196306347,-0.6828290461163967
1772456736921348900,4.551348876953125,-6.473519138002395,2.207070484304428,-1.731345069423318
1772456736931368000,4.561367919921875,-5.832732340258359,3.7807670774698257,-2.6588392695367333
1772456736941387800,4.5713876953125,-4.827134325245022,4.5179842049211265,-2.492703243179619
1772456736951406600,4.581406494140625,-3.949447235351801,3.7690547201052307,-1.6038634756311774
1772456736961426700,4.5914267578125,-3.7839877930819985,1.91172443292737,-0.7122289627976716
1772456736971445800,4.60144580078125,-4.462345319807529,-0.015951894630491733,0.014970665040798484
1772456736981465900,4.6114658203125,-5.028882055470347,-1.3337339908361434,0.5709734394686297
1772456736991485000,4.62148486328125,-5.116211963877082,-2.0069655528500676,0.6153046390283853
1772456737001505000,4.631505126953125,-4.772341243305802,-2.283780506758392,-0.04588065749146044
1772456737011523800,4.64152392578125,-3.9178935747027395,-2.506681207388639,-0.8263805348955094
1772456737021543700,4.651543701171875,-2.652003286036849,-2.7594956925064325,-1.4255965742364525
1772456737031562800,4.661562744140625,-1.1583990512400866,-2.881991899101436,-1.4960912293069064
1772456737041581800,4.671581787109375,0.2892033108383417,-2.8001135340988634,-0.9015175358790903
1772456737051602000,4.681601806640625,1.5770464881151913,-2.550623517228663,0.021290844505652783
1772456737061620700,4.691620849609375,2.69802912415266,-2.1808057238437235,0.9176776664327829
1772456737071640800,4.701640869140625,3.61005453697741,-1.7043420578159392,1.5911904565408825
1772456737081660000,4.711659912109375,4.199162585410475,-1.249512131447345,2.072440333931893
1772456737091679700,4.7216796875,4.3870150612741705,-0.9315801542527973,2.077001212106645
1772456737101698800,4.73169873046875,4.444285931503773,-0.6854660435564816,1.5558262976929544
1772456737111719000,4.741718994140625,4.698460599058866,-0.37572380255833265,0.9877772577710449
1772456737121737700,4.75173779296875,5.181076357975602,-0.09659691844582557,0.4493500701854005
1772456737131757800,4.7617578125,5.799739002195,0.2107552125453949,0.026457323890738186
1772456737141777000,4.77177685546875,6.51135114826858,0.5774085505500436,-0.16550229503083974
1772456737151796700,4.781796630859375,7.266909403574466,0.9552776945739984,-0.033447694234736265
1772456737161815800,4.79181591796875,7.878730803596973,1.1623133020743728,0.3311681831255555
1772456737171835600,4.801835693359375,8.221378704375027,1.1870235265694558,0.8221665704622865
1772456737181854700,4.811854736328125,8.280174592214822,0.9730823774643241,1.3675364533253014
1772456737191874800,4.821874755859375,8.052040374845266,0.5657154824078082,1.8163892049804329
1772456737201894000,4.831893798828125,7.456286312526464,0.10029825718179344,2.1555790742591023
1772456737211913700,4.841913818359375,6.513145045948028,-0.4703785008952021,2.230691744519025
1772456737221932800,4.851932861328125,5.467845135143399,-0.9794473824515938,2.139778132406622
1772456737231951600,4.86195166015625,3.7462826240658758,-1.4139891385510563,2.2208803984701633
1772456737241971700,4.8719716796875,1.1411334436625242,-1.5516823297560214,1.9980770207345484
1772456737251990800,4.88199072265625,-1.6324048027217388,-0.9663128833293915,0.9114650024630129
1772456737262011000,4.892010986328125,-3.9088352389782663,-0.021635200963914393,-0.45229105554074045
1772456737272030000,4.902030029296875,-5.848905476424098,0.8480994686201214,-1.3857025168739259
1772456737282049800,4.9120498046875,-7.938013013648987,0.8963023585140705,-1.2599034693412483
1772456737292068600,4.922068603515625,-10.436613790434599,-0.09658931966125965,-0.27748519958639517
1772456737302088700,4.932088623046875,-12.341132237505912,-1.028444637593627,0.693212054573372
1772456737312107800,4.942107666015625,-12.504908256733417,-0.8452098846584558,0.4959574345162138
1772456737322128000,4.9521279296875,-11.274024399518966,0.2655307588279247,-0.7776504793222994
1772456737332147000,4.96214697265625,-9.646568159115313,1.0884560387030244,-2.250424472862482
1772456737342166800,4.972166748046875,-8.149514076125621,1.2477142882451415,-3.2239196689113974
1772456737352185600,4.982185546875,-6.884984554418921,1.4645029357358812,-3.860840146616101
1772456737362205700,4.992205810546875,-5.679626183605194,2.01581989043504,-3.8918528322562573
1772456737372224800,5.002224853515625,-4.588723628532886,2.353234858995676,-2.955133707679808
1772456737382244900,5.012244873046875,-3.939549526193738,1.8074147481471299,-1.3729206305816768
1772456737392264000,5.022263916015625,-3.9327690722733735,0.46107115884572264,0.13117336098216473
1772456737402284000,5.032283935546875,-4.3726609572291375,-1.0612588196977972,0.580768017045781
1772456737412302800,5.042302734375,-4.346615246346593,-2.264025420452654,-0.21379092697948215
1772456737422322000,5.052322021484375,-3.6437902178406714,-3.226599994036555,-1.2233490777954459
1772456737432341800,5.062341796875,-2.2890642923802136,-4.073043512143195,-1.7098288186639545
1772456737442360800,5.07236083984375,-0.590474076089263,-4.647783135744929,-1.7144197997160255
1772456737452381000,5.082380859375,0.8507423843443394,-4.978917708861828,-1.6004663805387913
1772456737462400000,5.09239990234375,2.011139915925264,-4.921662036201358,-1.1805169211544095
1772456737472420000,5.102420166015625,2.803926954907179,-4.386413588249683,-0.33247816974557937
1772456737482439000,5.11243896484375,3.2118267877966162,-3.6912729767665264,0.8902840480726212
1772456737492458800,5.122458740234375,3.6045278825104234,-2.9785476087540386,1.7489005998581646
1772456737502477800,5.132477783203125,4.080384230294824,-2.3720441888839003,1.9850636637739836
1772456737512498000,5.142497802734375,4.619929498657584,-1.9065987604767083,1.814913871730864
1772456737522517000,5.15251708984375,5.233976173514128,-1.5208856249541043,1.4716395096175372
1772456737532536800,5.162536865234375,5.869800964936614,-1.1565215669304132,1.0470654591724275
1772456737542556000,5.172555908203125,6.475721031960845,-0.7591282227471471,0.6892110753037035
1772456737552575700,5.18257568359375,6.965231226566433,-0.3424932947382331,0.5757990695267915
1772456737562594800,5.1925947265625,7.252440733239054,0.037194004623591896,0.6841548878926783
1772456737572615000,5.202614990234375,7.368405199977755,0.3974171634502709,0.8309139405414462
1772456737582634000,5.212634033203125,7.421558113494515,0.8160391736231744,0.9836230607010423
1772456737592652800,5.22265283203125,7.509063962990045,1.2470227988496423,1.0139346123345196
1772456737602673000,5.2326728515625,7.5164903135985135,1.6782611294895409,1.0817273880351335
1772456737612692000,5.24269189453125,7.4206345689088105,1.9212500939026473,1.3552534564658998
1772456737622711800,5.2527119140625,7.221435354122519,1.9673009203292429,1.7230983423426747
1772456737632731000,5.26273095703125,6.968177801412343,1.903882925646752,1.837556788432598
1772456737642751000,5.2727509765625,6.424883994171023,1.5934325363792479,1.6966826291039585
1772456737652769800,5.282769775390625,5.6359840257555245,1.3423340613991022,1.3744506166279316
1772456737662790000,5.292789794921875,4.817734044215083,1.1531111739650368,0.9922166284579783
1772456737672809000,5.30280908203125,3.6001673492133617,1.0310615420937537,0.6142233465977013
1772456737682828800,5.312828857421875,1.5483470478534698,0.8364832651063799,0.10737952067963778
1772456737692847900,5.322847900390625,-1.7132582085907457,-0.09246317964196205,-0.5837370229192078
1772456737702867700,5.33286767578125,-5.3183817189067595,-0.6774117703080177,-1.5718756613485514
1772456737712886800,5.34288671875,-8.454908643308281,-1.1973422376185654,-1.394408093637973
1772456737722907000,5.352906982421875,-10.357034642285107,-2.7012682522043585,-1.162726851311326
1772456737732926000,5.362926025390625,-10.535055459964275,-3.848795488557219,-0.7246364628195762
1772456737742945800,5.37294580078125,-9.750670923146606,-4.246599751628935,0.2867296872664243
1772456737752964900,5.38296484375,-8.865494938802719,-3.7031603984370824,1.0191576076798141
1772456737762983700,5.392983642578125,-8.849213081565498,-2.3540958597391843,1.4151865316420793
1772456737773003800,5.403003662109375,-9.396060197374224,0.12481354362666607,0.32439583944641054
1772456737783022800,5.41302294921875,-9.570155366042256,3.3224440482884643,-1.1660516118198632
1772456737793043000,5.42304296875,-9.343201882889867,5.576672005087137,-1.4011369635015725
1772456737803062000,5.43306201171875,-9.276462342569232,5.460571929270029,-1.1834938911385833
1772456737813081900,5.443081787109375,-9.341999521362782,3.626546529833972,-1.3937424693360925
1772456737823101000,5.453100830078125,-8.699274449032545,1.6200006637006996,-1.830640287042409
1772456737833120800,5.463120849609375,-7.028175466257333,-0.18922434873878954,-1.942425422269851
1772456737843139800,5.473139892578125,-4.505073869943619,-1.7447420188739895,-1.9100620526731014
1772456737853160000,5.483159912109375,-1.4971218875288963,-2.7457378007888793,-1.6194062049388884
1772456737863179000,5.493178955078125,0.950412718886137,-3.4641149109527465,-0.3846501824662089
1772456737873198800,5.50319873046875,2.593089324775338,-3.3813942499071357,0.8241801022417843
1772456737883218000,5.513218017578125,3.5284546966552734,-2.7112238290295005,1.204309592413157
1772456737893237800,5.52323779296875,3.977621774956584,-1.9388551625676451,1.0403246796753256
1772456737903256800,5.5332568359375,4.393751091530919,-1.4405682256579397,1.02057361195758
1772456737913276000,5.54327587890625,4.771752629762887,-1.0293917091853917,1.3245499829053877
1772456737923296000,5.5532958984375,5.023377028313279,-0.6375637440443038,1.5923548241451382
1772456737933314800,5.563314697265625,5.036192086222767,-0.2600232474528253,1.6904732530698179
1772456737943335000,5.5733349609375,4.836789457818866,-0.04728957444131374,1.5879427067913114
1772456737953354000,5.58335400390625,4.842858548599481,0.21946415031030772,1.1896302750017493
1772456737963373800,5.593373779296875,5.272721791493892,0.5759837784439324,0.6296062822338193
1772456737973393000,5.603392822265625,5.89770954708159,0.8146903893627225,0.15054646223299203
1772456737983413000,5.6134130859375,6.498779251465201,0.9837145383767784,-0.13046755080036818
1772456737993431800,5.623431884765625,7.049085567817092,1.1565106071449816,-0.2103266849350184
1772456738003452000,5.633451904296875,7.641514285105466,1.366639796746522,-0.21090959938950835
1772456738013471000,5.643470947265625,8.160815222340823,1.5125291538886725,0.02638349146954715
1772456738023490800,5.65349072265625,8.492537824478745,1.6714856440052388,0.40256197899281976
1772456738033510000,5.663510009765625,8.87584097625017,1.9153227496802805,0.8290421553201973
1772456738043529700,5.67352978515625,9.128620974576473,2.083473038469255,1.2693000971093773
1772456738053548800,5.683548828125,8.822608567756413,2.086886938565969,1.5551783551782368
1772456738063569000,5.69356884765625,7.9605182754457,1.9575652698650956,1.5312699485853314
1772456738073588000,5.703587890625,6.782095257830619,1.6654320430546998,1.2010613312069327
1772456738083607000,5.71360693359375,5.555471396148205,1.1425409723728894,0.5877908283546567
1772456738093627000,5.723626953125,4.017961384129524,0.5936021449819207,-0.1498093253311701
1772456738103645700,5.733645751953125,2.08365920869112,0.6425210741907358,-1.0917491619642823
1772456738113665800,5.743665771484375,-0.7930325381755828,0.7306786655932664,-2.12782276006639
1772456738123684900,5.753684814453125,-5.00910651089847,0.3040297085702419,-2.9274621491611
1772456738133705000,5.763705078125,-9.848008430826663,-1.0604296753972768,-3.130681413243711
1772456738143724000,5.77372412109375,-13.819279375451803,-2.745510129512846,-3.09404504250288
1772456738153743600,5.78374365234375,-15.536163957846163,-3.8884526684239504,-3.0179832548245784
1772456738163762700,5.7937626953125,-14.615644857442378,-3.5769928098529573,-3.0430151124894618
1772456738173782800,5.80378271484375,-11.796696859014034,-1.7860063416764138,-3.0884076211377978
1772456738183801900,5.8138017578125,-9.180338302332162,-0.5250657843723893,-2.316280216085911
1772456738193822000,5.823822021484375,-7.418022340583801,0.5465513477325439,-2.2517197733700276
1772456738203841000,5.833841064453125,-6.385376744168997,2.196251568648219,-3.223968476489186
1772456738213860900,5.84386083984375,-5.836543422979116,3.550208555562794,-3.2573078515112397
1772456738223880000,5.8538798828125,-5.520426386252045,3.4968481367751956,-2.0566741711318492
1772456738233898800,5.863898681640625,-5.361712911111116,2.0617577580064532,-0.9705216601308435
1772456738243918800,5.8739189453125,-5.596354610678553,0.33092823688983913,-0.5345071280650794
1772456738253938000,5.88393798828125,-5.688403948822617,-0.8839460041575133,-0.6259446179211139
1772456738263958000,5.8939580078125,-4.976204942771792,-1.6810922612622379,-0.5408526246342807
1772456738273976800,5.903976806640625,-3.3233763607025146,-2.0808537958815694,-0.1555357949528843
1772456738283997000,5.913996826171875,-1.2469009260356425,-2.203738271141797,0.4548209393445402
1772456738294016000,5.92401611328125,0.5500181470602751,-2.261816366101056,1.2232684868399053
1772456738304035800,5.934035888671875,1.8361480906784533,-2.2376953396707773,1.9396727625608443
1772456738314055000,5.944054931640625,2.7066017221868037,-2.020299373936653,2.5023688971474765
1772456738324074800,5.95407470703125,3.3259307213604448,-1.7857734097033737,2.8126012597501275
1772456738334093800,5.96409375,3.7196570674687623,-1.7033021933741868,2.9370570759803054
1772456738344114000,5.974114013671875,4.038755165833234,-1.701903140231222,2.8155700464278457
1772456738354133000,5.984133056640625,4.3967415055185555,-1.5429523492030799,2.294360060700774
1772456738364152000,5.994152099609375,4.767051904726028,-1.2300308936469255,1.601318467323482
1772456738374172000,6.004171875,4.945387779703736,-0.8531666888818145,0.7881638361606746
1772456738384190700,6.014190673828125,4.9982782428920265,-0.5060128549866378,-0.12064305300898849
1772456738394210800,6.0242109375,5.220760718110204,-0.12092895727828144,-0.8833760953150689
1772456738404231000,6.03423095703125,5.626975374391675,0.21110665633156894,-1.3501548181526362
1772456738414250800,6.044250732421875,6.087162443879246,0.5222429820366203,-1.5132830409958957
1772456738424269600,6.05426953125,6.520595361953974,0.828702401971817,-1.3308426533088087
1772456738434289700,6.06428955078125,6.9510811206609,1.1328436080925166,-0.9471405653476714
1772456738444308700,6.074308837890625,7.309530401682853,1.3872703507125377,-0.40479507180713115
1772456738454328800,6.084328857421875,7.54482618124485,1.577996628446877,0.13005750869475305
1772456738464348000,6.094347900390625,7.569075656360387,1.6777995033271609,0.5993241758905351
1772456738474367700,6.10436767578125,7.313293553608656,1.5753269708462059,0.8566729434370994
1772456738484386600,6.114386474609375,6.676402594259381,1.1932175589039922,0.9902394831661134
1772456738494406700,6.12440673828125,5.558693865326046,0.6702398328520357,0.9538391862034797
1772456738504425700,6.13442578125,3.9258068320453163,0.26600904386416074,0.5809486343096941
1772456738514444800,6.14444482421875,2.0206226145416495,0.10363587717190384,-0.33354733334705233
1772456738524465000,6.15446484375,0.08145546341538429,0.09257686914950608,-1.510694193546474
1772456738534483700,6.164483642578125,-2.268677337911725,-0.276354642920196,-2.1440376895472406
1772456738544503800,6.17450390625,-5.5095799980670215,-1.386048407702148,-1.5533002863466738
1772456738554523000,6.18452294921875,-8.537090667432546,-2.5782930299207565,-0.6927377881251275
1772456738564542700,6.194542724609375,-9.862508080822229,-2.8069118159368633,-0.02825995286591351
1772456738574561800,6.204561767578125,-9.435399689593911,-1.9077505608603358,0.42371304970160123
1772456738584582000,6.214581787109375,-8.250236550068855,-0.6916483854532242,0.6116529846530407
1772456738594600700,6.2246005859375,-7.61515468596816,0.30091771402955053,0.5320728135902434
1772456738604620800,6.234620849609375,-8.00915575736463,0.9415689026951789,-0.22571436981149018
1772456738614639900,6.244639892578125,-8.678887494564055,1.6123653465166687,-1.8461855005681513
1772456738624659700,6.25465966796875,-8.680901172474027,2.1815525966882703,-2.942622893413901
1772456738634678800,6.2646787109375,-7.575574370729923,2.2586463577628133,-2.5157763679921628
1772456738644697600,6.274697509765625,-6.205249309599399,1.5271201354295014,-1.2091736182529478
1772456738654717700,6.2847177734375,-5.337587939158082,0.41148792050927874,0.1936309131346643
1772456738664736800,6.29473681640625,-4.909159112980961,-0.48343964252024885,1.41488667191267
1772456738674756900,6.3047568359375,-4.417568020448089,-1.0622627360433339,2.164013432866335
1772456738684776000,6.31477587890625,-3.6370945195943114,-1.5369117538645862,1.9857830640897154
1772456738694795800,6.324795654296875,-2.462939680817723,-2.0403116498738525,1.4230880985468626
1772456738704814600,6.334814697265625,-1.1446984426677227,-2.583133747950196,1.007504798482731
1772456738714834700,6.344834716796875,0.1900058545053005,-3.0344200103625654,0.7032821976888924
1772456738724853800,6.354853759765625,1.6837801851719616,-3.292645414613187,0.44590734585300085
1772456738734873900,6.364873779296875,3.277000393974781,-3.323106896111369,0.5052346006231382
1772456738744893000,6.374892822265625,4.329378864863514,-3.135284230864048,0.5859864458138123
1772456738754912800,6.384912841796875,4.486057034784555,-2.7177614141046997,0.46486996660679575
1772456738764931600,6.394931640625,4.464478240182996,-2.0731804847747086,0.256321762586385
1772456738774950700,6.40495068359375,4.546351636749506,-1.455275380924344,0.2563385310580954
1772456738784970800,6.414970703125,4.776300794586539,-0.9419586326651275,0.46890345990657806
1772456738794989800,6.42498974609375,5.141308411210775,-0.40232027919143437,0.6838146961528807
1772456738805010000,6.435010009765625,5.658531957650184,0.123307669108361,0.7811001083195209
1772456738815028700,6.44502880859375,6.21117811512649,0.624071079134196,0.6567951718021183
1772456738825048600,6.455048583984375,6.594336305469274,0.9719967741847038,0.2233808122973889
1772456738835067600,6.465067626953125,6.869031783005595,1.2837040316455066,-0.2569527539663017
1772456738845087700,6.475087646484375,7.344923786625266,1.6298612557187675,-0.4183046878520399
1772456738855106800,6.48510693359375,7.899451520064472,1.9725905511699615,-0.22213497695475815
1772456738865127000,6.495126953125,8.446206865936517,2.0678902694121004,0.12449293337017298
1772456738875145700,6.505145751953125,8.873838988777994,2.0126940134994684,0.5101920403674245
1772456738885165600,6.51516552734375,8.960878974327445,1.7810818908862769,0.9856968713004142
1772456738895184600,6.5251845703125,8.59728531615436,1.1661103562697768,1.413937700624764
1772456738905203700,6.53520361328125,7.68600692230463,0.3502738656118512,1.6102970158100127
1772456738915223800,6.545223876953125,6.307687355288863,-0.33731501531749963,1.519545024000108
1772456738925242600,6.55524267578125,4.236901072174311,-0.6449843955643475,1.0271380119744689
1772456738935262700,6.5652626953125,1.2813041308969257,-0.3807636964216828,-0.09558547638095914
1772456738945281800,6.57528173828125,-1.734259495565295,0.3363488006338477,-1.5137000973641872
1772456738955302000,6.585302001953125,-4.620106024268269,0.7318203829742967,-2.238372508279979
1772456738965320700,6.59532080078125,-7.023107076951861,0.23036446063965557,-2.448984512962401
1772456738975340800,6.6053408203125,-8.993871727868914,-1.0879875444084406,-2.7903426661908624
1772456738985359600,6.615359619140625,-10.876123982596397,-3.2672283570230007,-2.68241888256669
1772456738995379700,6.625379638671875,-11.056713189458847,-4.533907750239968,-1.970378574208915
1772456739005398800,6.635398681640625,-9.030517158699036,-4.124753533375263,-1.091704372974485
1772456739015419000,6.6454189453125,-6.983026410976052,-2.7734909001111983,-0.8184604824859648
1772456739025438000,6.65543798828125,-6.264409939098358,-0.8484446287959814,-0.9910224502373486
1772456739035456800,6.665456787109375,-6.638399319079518,1.8487942217618225,-1.382386962585151
1772456739045476600,6.6754765625,-7.398283620890974,4.5455406126275655,-1.7166877446480093
1772456739055495700,6.68549560546875,-7.794744360399246,5.858343751376867,-1.3623824315629898
1772456739065515800,6.695515869140625,-8.207266007870436,4.867821724942326,-0.9464141507692635
1772456739075534800,6.705534912109375,-8.869118974518775,2.4875910147324203,-0.8269504437379539
1772456739085555000,6.715554931640625,-8.865206184989214,0.32735651588290926,-0.7276132136080413
1772456739095573800,6.72557373046875,-7.464821501159667,-1.1191279480814933,-0.8439290510676801
1772456739105593600,6.735593505859375,-4.686036586293578,-1.853661243276298,-1.0862765027068555
1772456739115612700,6.74561279296875,-1.2624655749142168,-2.152145884940028,-0.8386023030869663
1772456739125632800,6.7556328125,1.852989919885993,-2.4042975222349163,0.00003857844471931457
1772456739135651800,6.76565185546875,4.017815838178992,-2.7556965924844143,1.3862111970484257
1772456739145672000,6.775671875,5.111960736173391,-2.8237518915787336,2.9764632036954164
1772456739155690800,6.785690673828125,5.615324099564552,-2.259216704996675,3.8564448342666027
1772456739165709800,6.795709716796875,5.959814413338899,-1.5417324520193039,4.117052457478642
1772456739175729700,6.805729736328125,6.204104231217503,-1.0848035075448452,3.997800931893289
1772456739185748700,6.815748779296875,6.220471428650617,-0.8644036838196217,3.693519294388592
1772456739195768800,6.825768798828125,5.739996773415804,-0.7514420521587133,3.0386084019631148
1772456739205787600,6.83578759765625,5.0262961306303735,-0.5432749564103782,1.9733377162754535
1772456739215807700,6.845807861328125,4.6566742982089515,-0.003924772228300571,0.8210319404091686
1772456739225826800,6.855826904296875,4.6610243101119995,0.5853839133433997,-0.05980440729521214
1772456739235846700,6.8658466796875,5.0449225051671265,1.0157546673685312,-0.7539299234516919
1772456739245865700,6.87586572265625,5.696891791182756,1.3287553256407378,-0.932794425413385
1772456739255885800,6.8858857421875,6.1238803554236885,1.5762785724826156,-0.7603249582510441
1772456739265904600,6.895904541015625,6.686219054874777,1.8554782295703887,-0.8306457180593162
1772456739275924700,6.9059248046875,7.12027507328391,1.9509451210729776,-0.9897312413830309
1772456739285943800,6.91594384765625,7.265045947790146,1.706703526250273,-0.8503829764474183
1772456739295963000,6.925962890625,7.133456626418233,1.2402093194425106,-0.31931524824649093
1772456739305982700,6.935982666015625,6.675156393590569,0.5997745500065386,0.4630724156655371
1772456739316001500,6.94600146484375,5.806805287319421,-0.2170823697403073,1.356775989858061
1772456739326021600,6.956021728515625,5.034466577604412,-0.9897912279419601,2.1716852826684714
1772456739336040700,6.966040771484375,4.623433122864365,-1.3642077472940086,2.6125556572675706
1772456739346060800,6.976060791015625,3.6542116586118936,-1.2015038873426616,2.134490401262045
1772456739356079900,6.986079833984375,1.4132342285305262,-1.0587189259566365,0.861782979927212
1772456739366099700,6.996099609375,-1.7006535785615444,-1.221469693789631,-0.3345288186650723
1772456739376118800,7.006118896484375,-5.337600214117765,-1.2968109121084213,-0.8167007793370634
1772456739386138600,7.016138671875,-9.031904229143262,-1.674706359617412,-0.6551404633976519
1772456739396157700,7.02615771484375,-12.085304542046785,-2.1273817383006213,-0.8652087165921926
1772456739406176300,7.03617626953125,-13.90550219939947,-2.154255132178962,-1.3965638103671372
1772456739416196400,7.0461962890625,-14.367362170535324,-1.4427595982223749,-1.9880165222302077
1772456739426215200,7.056215087890625,-13.867391372191905,0.2262777758479118,-3.1289681795850393
1772456739436235300,7.0662353515625,-12.70203241881132,2.2949600724205372,-4.811060557800531
1772456739446254300,7.07625439453125,-10.679612399458884,4.073603484113514,-6.208592774808406
1772456739456274200,7.086274169921875,-8.090717019242048,5.073715468931198,-6.173952254059911
1772456739466293200,7.096293212890625,-5.6716234944134944,4.75329430526942,-4.266553867638111
1772456739476313300,7.106313232421875,-4.305727940163016,2.841694667765498,-1.5859988792471587
1772456739486332200,7.116332275390625,-4.314669371509551,0.26744682158231736,0.14727229940053074
1772456739496352300,7.126352294921875,-4.689192419975996,-1.6302067081555722,0.5313182688958943
1772456739506371300,7.136371337890625,-4.665658984175324,-2.3609850347310304,-0.08729081850536168
1772456739516391200,7.14639111328125,-3.9633641170233487,-2.345537874752283,-0.7547241425693034
1772456739526410200,7.15641015625,-2.852870141774416,-2.1698864165529606,-0.8709110198870301
1772456739536429000,7.166428955078125,-1.5173498520433901,-2.1368035005100072,-0.5510005822263657
1772456739546449200,7.17644921875,-0.24563012657165526,-2.1736067522503433,0.020198300028592346
1772456739556468200,7.18646826171875,0.7758218756556511,-2.199537458451092,0.6283337050147354
1772456739566488300,7.19648828125,1.5437649807602167,-2.1067631670333444,1.119118084274605
1772456739576507400,7.20650732421875,2.1040356417655945,-1.929136170977354,1.5002746524713932
1772456739586527200,7.21652734375,2.5157845512986183,-1.7515879392459988,1.6005246865972875
1772456739596546000,7.226546142578125,2.907780712613463,-1.6566060547813772,1.2495789130732415
1772456739606566100,7.236566162109375,3.4576620815515517,-1.5611818333767353,0.5888331039492041
1772456739616585200,7.246585205078125,4.209966303497553,-1.4108914647966622,-0.20030111161358655
1772456739626605300,7.256605224609375,5.031984697660803,-1.2039637015849352,-0.8287911762338132
1772456739636624400,7.266624267578125,5.954664775490761,-0.761617263083905,-1.2527670415900647
1772456739646643200,7.276643310546875,6.972880864536762,-0.14607596575543283,-1.4548255913302302
1772456739656663300,7.286663330078125,7.942185915419459,0.3810790459811687,-1.3660796786457299
1772456739666682400,7.296682373046875,8.654732711994647,0.7732298133358358,-1.033650170347467
1772456739676702200,7.3067021484375,9.079300771090388,0.9862333893299102,-0.46004283871129154
1772456739686721300,7.31672119140625,9.16840762604177,1.1048375569224358,0.2228070309974253
1772456739696741400,7.326741455078125,9.014837943530082,1.2381065019443631,0.7525927565637975
1772456739706760200,7.33676025390625,8.53322113252282,1.2656009503304957,1.1057995338223874
1772456739716780300,7.3467802734375,7.658024690401554,1.1358832680493594,1.1897954024355857
1772456739726799400,7.35679931640625,6.7409770655006165,0.9496639463454485,0.9227863146834074
1772456739736819200,7.366819091796875,5.797459951347112,0.8401052549958229,0.4863512921832502
1772456739746838300,7.37683837890625,4.879674659821391,0.8126423707917332,0.09820756851285696
1772456739756857000,7.386857177734375,3.976444547870755,0.8875643407851457,-0.13695165212266147
1772456739766877200,7.396877197265625,3.3096927032649517,0.9336948083192109,-0.4740124734833836
1772456739776896300,7.406896240234375,2.9045032983779904,0.9639829790771007,-0.9977471553824842
1772456739786916400,7.416916259765625,2.513061848336458,1.1690990166917443,-1.6023334895849226
1772456739796935400,7.426935302734375,1.5527660333395004,1.406738436770439,-1.6978468505777418
1772456739806955300,7.436955322265625,-0.42786008637845513,1.2563602437764405,-1.07913452199772
1772456739816974000,7.44697412109375,-3.4175177026897665,0.42848464801758523,0.006311703897453844
1772456739826994200,7.456994140625,-6.930850818058848,-0.49879649386703967,0.6643417877893895
1772456739837013200,7.46701318359375,-9.926500368261337,-0.8519549750044941,0.09139916713964194
1772456739847033300,7.477033447265625,-11.393522885602712,-0.710024584621191,-1.3583736343130468
1772456739857052400,7.487052490234375,-10.91921727439165,-0.10033902758359908,-2.6349133272871375
1772456739867071200,7.4970712890625,-9.69483914580941,0.47424335962980985,-3.1969907454535362
1772456739877091000,7.507091064453125,-8.758919647178054,1.0946394035130738,-3.3252471230104566
1772456739887110100,7.517110107421875,-7.921480396521091,2.1623706340953706,-3.219057323572039
1772456739897130200,7.527130126953125,-6.870635126549005,3.104505353979766,-2.3757753382362425
1772456739907149300,7.5371494140625,-6.063128072819113,3.0167735867738723,-1.2021399202238767
1772456739917169400,7.54716943359375,-5.950353342032432,1.780685438914597,-0.25098887712582946
1772456739927188200,7.557188232421875,-6.395075131362677,0.2384986672565341,0.2366917456987314
1772456739937208000,7.5672080078125,-6.401342959585786,-0.8104612273603677,0.53999841895774
1772456739947227100,7.57722705078125,-5.581808198931813,-1.0785878479003905,0.524517064448446
1772456739957247200,7.587247314453125,-4.273386928528547,-0.9790542914807796,0.23587321412377057
1772456739967266300,7.597266357421875,-2.7106448600977657,-0.9015390901237725,0.24855374066708608
1772456739977285000,7.60728515625,-1.203109715104103,-0.9150596659541129,0.6839562235154211
1772456739987305200,7.61730517578125,0.020530746853351593,-0.920378522889316,1.5354209307849407
1772456739997324300,7.62732421875,0.8802700921237469,-0.8607900233671069,2.2535393900126217
1772456740007344000,7.63734423828125,1.6358306855171918,-0.8111927565053105,2.573443251802027
1772456740017363200,7.64736328125,2.3645436039954424,-0.8845622363597154,2.6518609549567103
1772456740027383300,7.65738330078125,2.957580808570981,-1.1005556418195366,2.6607024330601097
1772456740037402000,7.667402099609375,3.286239346963167,-1.4412408642224968,2.615583188395202
1772456740047422200,7.677422119140625,3.652100950068235,-1.652352488990128,2.3464855308659374
1772456740057441300,7.687441162109375,4.280571871596575,-1.4896440989941357,1.7937163315318523
1772456740067461400,7.69746142578125,5.143930576407909,-1.0188440116859971,1.102221383074671
1772456740077480200,7.707480224609375,6.007822365182638,-0.4034600968763232,0.5318729801692068
1772456740087499300,7.717499267578125,6.55795683209896,0.03202916920632124,0.07779642945118248
1772456740097519000,7.72751904296875,6.841372791707515,0.4199269552916288,-0.3653871174611151
1772456740107538200,7.7375380859375,7.018499290895462,0.8448074413374066,-0.5781440982829779
1772456740117558300,7.747558349609375,6.9967305266797535,1.0190005174219607,-0.3314933599593118
1772456740127577300,7.757577392578125,6.990522904211282,1.0276420890390872,-0.028002909364923834
1772456740137597400,7.767597412109375,7.097045588865876,0.8325546934857964,0.17434454031921923
1772456740147616300,7.7776162109375,7.076554004979133,0.5294914918601512,0.29845844777654856
1772456740157636000,7.787635986328125,6.813272486382722,0.25959376999437805,0.4275587653443217
1772456740167655200,7.7976552734375,6.433387034100294,0.15666969435364006,0.5551524412088096
1772456740177675300,7.80767529296875,6.035447454211115,0.2283297399416566,0.5615475490733981
1772456740187694300,7.8176943359375,5.691463920915126,0.4453416747942567,0.39715069453381
1772456740197713200,7.827713134765625,5.402296850433945,0.6525736816495656,0.012894114495068788
1772456740207733200,7.837733154296875,4.862795421212911,0.6960229472756385,-0.5639639625653624
1772456740217752300,7.84775244140625,4.097316660395264,0.6880866013184189,-1.2754282246008515
1772456740227772200,7.857772216796875,3.423627125480771,0.9613611061409115,-2.235916931821406
1772456740237791200,7.867791259765625,2.509035077038407,1.3871362029388545,-3.088862086907029
1772456740247811300,7.877811279296875,0.2867237689822912,1.145650921086967,-2.7916967111483215
1772456740257830100,7.887830078125,-3.6776995017051695,-0.25862901661545035,-1.2808463041268288
1772456740267850200,7.897850341796875,-7.910778969764709,-1.9428861716493964,0.060047897194884715
1772456740277869300,7.907869384765625,-10.879502519118786,-2.5173767889261245,0.04222692075688392
1772456740287889200,7.91788916015625,-12.373312505620717,-1.6563161319240927,-0.5195450847221538
1772456740297908200,7.927908203125,-13.302073364669084,-0.9654027827471494,-0.6013187472412362
1772456740307927000,7.937927001953125,-13.869204559093713,-1.0609127827391027,-0.6203321118015795
1772456740317947100,7.947947021484375,-13.32468384040594,-0.6185267428800463,-1.0115344923902303
1772456740327966200,7.95796630859375,-11.281590450859069,0.6715007926985621,-0.9632578066077083
1772456740337986300,7.967986328125,-8.746240198346971,1.2385253118783235,0.29687720646709204
1772456740348005400,7.97800537109375,-6.854122967687249,0.14691636210232972,1.9216054832115768
1772456740358025200,7.988025146484375,-6.025670741084218,-1.7489134593397377,2.3078816594444214
1772456740368044000,7.9980439453125,-5.536117291858792,-3.204039494921267,1.487700563710928
1772456740378064100,8.008064208984376,-4.468457665207982,-3.904039236873388,0.2764820686921477
1772456740388083200,8.018083251953126,-3.283341287434101,-4.335668028135597,-0.9815169552672653
1772456740398103300,8.028103271484374,-2.246179674899578,-4.728467614787816,-1.6442165288075803
1772456740408121900,8.038121826171874,-1.408296187606454,-4.870909461824596,-1.8536831628471613
1772456740418141000,8.048140869140624,-0.6900345205157995,-4.755244562554359,-1.7670340763114392
1772456740428160800,8.058160888671875,-0.12047288407385348,-4.418875011393427,-1.3048003034271298
1772456740438179800,8.068179931640625,0.5341559765398503,-3.955384808707237,-0.8000162595830858
1772456740448199700,8.07819970703125,1.626449109187722,-3.457409568095207,-0.38869609685614703
1772456740458218800,8.08821875,2.9449796856731174,-3.0309587639927864,0.19994747587032616
1772456740468238800,8.09823876953125,4.0399762320607895,-2.781926135501265,0.734671023165062
1772456740478258000,8.1082578125,4.852300330683589,-2.4965429674729704,0.9495596091881394
1772456740488277800,8.11827783203125,5.519481214356422,-2.055668062829226,0.9819989666305482
1772456740498296800,8.128296875,5.900883500942587,-1.4359636544719339,0.8584802851200103
1772456740508316000,8.13831591796875,5.9758981176555155,-0.6645819532208145,0.6022423283595592
1772456740518335700,8.148335693359375,5.851410152721405,0.14466171504333614,0.26047595965638753
1772456740528354800,8.158354736328125,5.591842686212063,0.9479645950816571,-0.018157441850751636
1772456740538374700,8.168374755859375,5.579173174253106,1.6001840564660728,-0.004161284397915005
1772456740548393700,8.178393798828125,5.819127008754014,1.9943297970302403,0.1066653810609132
1772456740558413800,8.188413818359376,6.241301450711489,2.129381972207129,0.3182935039833188
1772456740568433000,8.198432861328126,6.724515175521374,2.024975402923673,0.5966856440804899
1772456740578452700,8.20845263671875,7.179547930985689,1.7910948969870806,0.8705635946888476
1772456740588471800,8.218471923828124,7.484601721906661,1.5818271465204654,1.0889635498337447
1772456740598491600,8.22849169921875,7.678297078579663,1.3613077880688012,1.2466510429278015
1772456740608510700,8.2385107421875,7.825780134654044,0.9867381239816546,1.2220140297994018
1772456740618529800,8.24852978515625,7.5678411461293695,0.5483728640712797,1.33475719640404
1772456740628550000,8.2585498046875,6.65189768307805,-0.11635346605628728,1.6549302305236457
1772456740638569000,8.26856884765625,5.17388030899167,-0.40864422151595353,1.5468752217352388
1772456740648588800,8.2785888671875,2.99426657141149,-0.2641518716901541,0.7596656175594776
1772456740658607600,8.288607666015626,0.09051789079308509,-0.3124424398675561,-0.6042150897372514
1772456740668627700,8.298627685546874,-2.7765286603718993,-0.444041113589704,-1.9571768550693989
1772456740678646800,8.308646728515624,-5.309132829046249,-0.8525152392357588,-2.7668916479766366
1772456740688667000,8.3186669921875,-8.239983451601862,-1.8970982339426874,-2.7330291258633137
1772456740698686000,8.32868603515625,-11.218146444952488,-3.2391189916089176,-1.9805662062242626
1772456740708704800,8.338704833984375,-12.62358958121538,-3.4817157418340443,-1.1472522918689996
1772456740718724600,8.348724609375,-11.89179857046604,-2.163274304936826,-0.3600526245653629
1772456740728743700,8.35874365234375,-10.237919602560996,-0.41305210108608004,0.1093332850959152
1772456740738763800,8.368763671875,-9.207091284701228,0.753160254253447,0.05126483474783599
1772456740748782800,8.378782958984376,-8.598322842508553,2.3125635336503385,-0.9760848472159356
1772456740758803000,8.388802978515624,-7.544847808554768,4.62481288678497,-1.6343251032598316
1772456740768821800,8.39882177734375,-6.090663145476579,6.279178469163179,-0.8102547450028359
1772456740778841900,8.408841796875,-5.151704133018851,6.366337112656235,0.5871596908442676
1772456740788860700,8.418860595703125,-5.060273219034076,5.24092730782628,1.474774885033816
1772456740798880800,8.428880859375,-5.2878106395542614,3.74131418800354,1.4521426358565688
1772456740808899800,8.43889990234375,-4.526945510011911,2.355235969685018,0.6135279116794466
1772456740818918700,8.448918701171875,-3.0933588138043877,1.0947840726807714,-0.8511299954224377
1772456740828938800,8.458938720703125,-1.891660719063878,-0.2739905441373586,-2.449283057517558
1772456740838957800,8.468957763671876,-0.5407195728391408,-1.4381345687702298,-3.5653099708437916
1772456740848978000,8.47897802734375,1.4181968193739651,-2.119036811542511,-3.891317994727194
1772456740858997000,8.4889970703125,3.5970395725816484,-2.2909689569577574,-3.5587846607282754
1772456740869016800,8.499016845703125,5.574139271739125,-2.319801083688438,-2.6310227495893836
1772456740879035600,8.50903564453125,6.826638163912296,-2.379109597225487,-1.225194267270714
1772456740889055700,8.5190556640625,7.324442139610648,-2.349007304428518,0.058114015656011174
1772456740899074800,8.52907470703125,7.433464824387431,-2.1574340544760227,0.8493479343112558
1772456740909094000,8.539093994140625,7.202438977229595,-1.9673513353422283,1.2989160676941274
1772456740919114000,8.549114013671876,6.802716605576872,-1.8132412623435257,1.3478862886987626
1772456740929132800,8.5591328125,6.428866341805458,-1.5865934841394425,0.9947762498129159
1772456740939152600,8.569152587890626,5.947532439392805,-1.2921943582236766,0.535090627041459
1772456740949171700,8.579171630859374,5.643142080816626,-1.0049822212025523,0.09316196642792783
1772456740959192800,8.58919287109375,5.605620451673865,-0.6242912977561355,-0.16724568636575712
1772456740969212000,8.5992119140625,5.692925810161233,-0.15605740767419338,-0.3316158903604373
1772456740979231000,8.60923095703125,6.009751287418603,0.3500153608061373,-0.1656279124381952
1772456740989250800,8.619250732421875,6.4898588629066944,0.8539446875169873,0.4179103547722101
1772456740999269600,8.62926953125,6.85535163269937,1.234952714088559,1.2688960463531314
1772456741009289700,8.639289794921876,7.047137356358766,1.364270291136205,2.1128382491633295
1772456741019308800,8.649308837890626,6.931598421555757,1.1601029325485228,2.6554581026658415
1772456741029329000,8.659328857421874,6.2427837982237335,0.6953009166114031,2.811184963211417
1772456741039348000,8.669347900390624,5.096341142237186,0.15130407566726206,2.4751629103139043
1772456741049367600,8.679367431640625,3.499155536934733,-0.2242813413336873,1.8070482529222964
1772456741059386600,8.68938671875,1.271976915103197,-0.3974282693661749,0.7672256775502115
1772456741069406700,8.69940673828125,-0.9478606963157653,-0.1322106681406498,-0.6691116325397044
1772456741079425800,8.70942578125,-2.632856687018275,0.5077998845338821,-2.1313692005015907
1772456741089444900,8.71944482421875,-4.597039621457458,0.9506266538977622,-3.0579055153682826
1772456741099465000,8.72946484375,-6.877417334035038,0.5511690706610679,-2.831534800539911
1772456741109483800,8.73948388671875,-8.570562144401668,-0.5862842231839895,-1.8197680337637663
1772456741119503600,8.749503662109374,-9.078695790934562,-1.4645911985412239,-0.5582734227735549
1772456741129522700,8.759522705078124,-8.893583553689718,-1.4538511933401226,0.5396908873785287
1772456741139542800,8.769542724609375,-8.934863074061274,-0.61680415687114,0.8564330702666193
1772456741149561900,8.779561767578125,-9.701558809453248,0.4392465727895498,0.22982366829384118
1772456741159581700,8.789581787109375,-10.578047044950724,1.5598548225566744,-1.3268202659249304
1772456741169600800,8.799600830078125,-10.633343984758854,2.936539481846988,-3.013972265617549
1772456741179619800,8.809619873046875,-9.6119229621917,4.390442405374348,-3.397427393080294
1772456741189639700,8.8196396484375,-8.169461470133065,4.966163441228867,-2.0304995731726287
1772456741199658800,8.82965869140625,-7.042890220308303,4.142907321964204,-0.21971264517866074
1772456741209678800,8.839678955078124,-6.6076990603893995,2.302748534339666,1.0676503473658114
1772456741219697700,8.84969775390625,-6.634893356785178,0.11446019965559244,1.5903361777991056
1772456741229717800,8.8597177734375,-6.170957163897157,-1.4683467516824602,1.3304286656804383
1772456741239736800,8.86973681640625,-4.812813538947701,-2.423762247291952,0.7241266866665333
1772456741249757000,8.8797568359375,-3.0619489455401894,-3.042874827235937,0.21954996543023733
1772456741259776000,8.88977587890625,-1.186393558102846,-3.541637418833375,-0.2049663269456476
1772456741269794800,8.899794921875,0.6887737067997455,-3.8095477662742137,-0.3048241103509441
1772456741279814700,8.909814697265626,2.4140403330922124,-3.8994852268308398,0.08315017503667622
1772456741289833700,8.919833740234376,3.698620124658942,-3.7474738796770573,0.6941282195702195
1772456741299853800,8.929853759765624,4.545660147354006,-3.399374727755785,1.257268006271124
1772456741309873000,8.939872802734374,5.032952081388235,-2.9341622313216327,1.677005576470494
1772456741319893000,8.94989306640625,5.188358916199207,-2.5211732585996387,1.9788357291698455
1772456741329911800,8.959911865234375,5.226364529466629,-2.161074895196408,2.00874220713377
1772456741339931600,8.969931640625,5.160057535344362,-1.7533426739588378,1.7137027374878524
1772456741349950700,8.97995068359375,4.963019297984242,-1.2942222107894719,1.1395872371338307
1772456741359969800,8.9899697265625,4.777966681972146,-0.7842433747813106,0.415540118509531
1772456741369990000,8.999989990234376,4.721489592468738,-0.21128844263926147,-0.31500922161564227
1772456741380008700,9.0100087890625,4.847424249079824,0.3147182758450508,-0.9678506873559206
1772456741390028800,9.02002880859375,5.261650362381339,0.7768785451017319,-1.2803935919232665
1772456741400048400,9.03004833984375,5.792849242681265,1.1386746523335576,-1.24299412785545
1772456741410068500,9.040068359375,6.365756097897886,1.3935165516257286,-1.0061644167244435
1772456741420087600,9.050087646484375,6.937846376034617,1.5605140171177685,-0.6543395222783088
1772456741430107600,9.060107666015625,7.410536953264474,1.632676897661388,-0.15887494931295512
1772456741440126500,9.07012646484375,7.659259785154461,1.600652696891129,0.31850100925415753
1772456741450146600,9.080146484375,7.6602943888992066,1.4251003151521087,0.5869403490051627
1772456741460165400,9.090165283203126,7.4104726558566085,1.2344260598659516,0.6462598223276436
1772456741470184400,9.100184326171876,6.978316333588958,1.057436046539247,0.3761925891138613
1772456741480204500,9.11020458984375,6.253808465585112,0.9213406459197402,-0.23926512158438562
1772456741490223400,9.120223388671874,5.343463553193211,0.8991992489993572,-1.0270070060059429
1772456741500243500,9.130243408203125,4.306542763677239,1.0531573463067412,-1.8989656352497637
1772456741510262500,9.140262451171875,3.518452942600846,1.6415972862198949,-2.9162963197633625
1772456741520282600,9.15028271484375,2.7597710023164748,2.3936887421980497,-3.449788571697473
1772456741530301700,9.1603017578125,1.0721236203223465,2.517896428886056,-2.6952088060349224
1772456741540321500,9.170321533203126,-2.183131390312314,1.5526786473169922,-1.316541448494792
1772456741550340400,9.18034033203125,-6.439245697000622,0.3247597773879766,-0.19878003952614962
1772456741560359400,9.190359375,-10.213365007019043,0.24611498747915028,-0.4182974178610369
1772456741570379500,9.200379638671874,-12.10017594796419,1.4827061164245008,-1.6580236664943395
1772456741580398600,9.210398681640624,-11.93426759288311,2.7197771378412843,-2.437432752986997
1772456741590418700,9.220418701171875,-10.674052427244186,3.1513311103016135,-2.3765623969607055
1772456741600437500,9.2304375,-9.377095969185232,3.2885289192050693,-1.9789784986414014
1772456741610457300,9.240457275390625,-8.178755952700971,3.734348440644145,-1.7773659391030667
1772456741620476400,9.250476318359375,-6.80217942996025,4.022350851260126,-1.3549389836892485
1772456741630496500,9.26049658203125,-5.610246357908845,3.299557970480621,-0.6475358336128294
1772456741640515600,9.270515625,-5.236142996159195,1.6141566138476133,-0.27925361576471475
1772456741650534400,9.280534423828126,-5.585048788288235,-0.2380734275817871,-0.16319785401336848
1772456741660554500,9.290554443359374,-5.844657171329856,-1.6745470774024724,0.18246420695409177
1772456741670573600,9.300573486328124,-5.60626284123063,-2.4205045606702567,0.3046815600750968
1772456741680593400,9.310593505859375,-4.932305010768771,-2.687885915800929,-0.05372855798024684
1772456741690612500,9.320612548828125,-3.9536552084356544,-2.871348047751188,-0.5062142227776348
1772456741700632600,9.330632568359375,-2.7618209205836055,-3.0397371137320994,-0.5707859906051308
1772456741710651400,9.3406513671875,-1.5087784230530261,-3.2946213908612725,-0.13871667076749727
1772456741720671500,9.35067138671875,-0.3867050691694021,-3.50413186404258,0.5872698001552373
1772456741730690600,9.360690673828126,0.7278770521759986,-3.5785780332177874,1.4917539307549594
1772456741740709600,9.370709716796876,1.7961656243801116,-3.610060382196307,2.444763680396974
1772456741750729500,9.3807294921875,2.7152777805954216,-3.6508950814098116,3.1087925297796724
1772456741760748300,9.390748291015624,3.5020828225582834,-3.6640421477526424,3.445708608907461
1772456741770768400,9.400768310546875,4.138725360104441,-3.6132016028314826,3.5074016794934866
1772456741780787500,9.410787353515625,4.535142844992876,-3.448652845665812,3.3661259536266326
1772456741790807600,9.4208076171875,4.821478491440415,-3.090602208572626,2.9021292627230286
1772456741800826600,9.43082666015625,5.089458981508017,-2.566682379364967,2.1798063375428316
1772456741810846500,9.440846435546876,5.334201803851127,-1.885407211627066,1.3870035164698957
1772456741820865300,9.450865234375,5.613865717449784,-1.2082768886089323,0.7587201534029095
1772456741830884400,9.46088427734375,5.912792549923062,-0.7462460909508168,0.4273219609137624
1772456741840904400,9.470904541015624,6.2002194987386465,-0.39869361312687396,0.35679899306427687
1772456741850923500,9.480923583984374,6.2728749851047985,-0.1426502290904522,0.32194194348827004
1772456741860943600,9.490943603515625,6.223940566065907,0.0017152794852852821,0.4936194565553218
1772456741870962400,9.50096240234375,6.1174710729032755,-0.05640402426719665,0.964514747866243
1772456741880982300,9.510982177734375,5.869447913715243,-0.28516528749391434,1.600777492314577
1772456741891001300,9.52100146484375,5.515144646456838,-0.5835048215985298,1.9987151725076138
1772456741901021400,9.531021484375,5.044462486439943,-0.8735945598825812,1.9575779832161961
1772456741911040500,9.54104052734375,4.429894418057799,-1.0951150582008062,1.5302281844474375
1772456741921059300,9.551059326171876,3.5833933245450256,-1.208535977936536,0.8746026409465819
1772456741931079400,9.561079345703124,2.45412392167747,-1.3826318772569297,0.06394103217590599
1772456741941098500,9.571098388671874,0.8968383650869131,-1.412251354973018,-1.0791489158492535
1772456741951118600,9.58111865234375,-0.9138140498071908,-0.8498752461209893,-2.24033314082846
1772456741961137400,9.591137451171875,-3.2241409104466436,-0.13902882372289896,-2.311595419270545
1772456741971157500,9.601157470703125,-6.221516553789376,-0.1119979011952877,-1.1988305764801799
1772456741981176300,9.61117626953125,-9.31214389680326,-0.801305276480317,-0.08548435360528528
1772456741991196400,9.621196533203126,-11.63733865622878,-1.3028943236753343,0.09211793726771138
1772456742001215500,9.631215576171876,-12.247350376480817,-0.7525108504340052,-1.013130017953366
1772456742011234600,9.641234619140626,-11.451581106817722,0.5409115882799029,-2.3554420136511323
1772456742021254700,9.651254638671874,-10.45244731938243,1.6030875228226185,-2.8686411268800494
1772456742031273700,9.661273681640624,-9.495091649490595,2.310745670573413,-2.8384149154424665
1772456742041293300,9.671293212890625,-8.402408640742301,3.0947450074657796,-3.142643361455202
1772456742051312400,9.6813125,-7.166387420639396,3.756024558140337,-3.471218313217163
1772456742061332500,9.69133251953125,-5.890307161870599,3.559509760132432,-3.2514772456616163
1772456742071351600,9.7013515625,-4.953537768411636,2.239784128643572,-2.5718518909573556
1772456742081371600,9.71137158203125,-4.376360980790853,0.47933454528897995,-1.7253046202152966
1772456742091390500,9.721390380859376,-3.7272096748054024,-1.0472487067848444,-0.9004850510261952
1772456742101409500,9.731409423828126,-2.8719121113747357,-2.044930249585211,-0.5411387115666643
1772456742111429400,9.741429443359374,-1.8861784882605075,-2.530181325441599,-0.78493427965492
1772456742121448400,9.751448486328124,-0.7680997569710016,-2.8187618282064792,-1.0774805442456155
1772456742131468500,9.761468505859375,0.11555822402536868,-3.08126008747071,-0.9817664730489254
1772456742141487600,9.771487548828125,0.4605255076617002,-3.0986449375137686,-0.4716918850487098
1772456742151507500,9.781507568359375,0.5064186593085527,-2.7004902535691855,0.5249721878048033
1772456742161526500,9.791526611328125,0.5062012171655893,-1.9876962042346595,1.373823132379353
1772456742171546400,9.80154638671875,0.6029957040101289,-1.2865943462595344,1.9613826361961662
1772456742181565400,9.8115654296875,0.8815496105402707,-0.8603796890005468,2.408651333530247
1772456742191584500,9.82158447265625,1.3568114995628595,-0.723680915660411,2.735513636155426
1772456742201604600,9.8316044921875,2.101803937190771,-0.738914432888478,2.739439577427506
1772456742211623400,9.84162353515625,3.0501170534491537,-0.6423869264170528,2.4056343237966296
1772456742221643500,9.8516435546875,4.119236231258511,-0.3168320531286299,1.7765774190738797
1772456742231662600,9.86166259765625,5.212254171049595,0.16596666113957761,1.0312611563190817
1772456742241682400,9.871682373046875,6.196954359462857,0.7021151266708969,0.34752456690371036
1772456742251701500,9.881701416015625,6.947793769553304,1.130195577801764,-0.09726776691209524
1772456742261720300,9.89172021484375,7.469449160960316,1.3953648098409175,-0.22541725002843885
1772456742271740400,9.901740478515626,7.793485300248861,1.554739671500027,-0.005608450998924672
1772456742281759500,9.911759521484376,7.918426854169368,1.610872769871354,0.48651444685570894
1772456742291779600,9.921779541015624,7.95550073954463,1.622036553442478,0.9884362331364304
1772456742301798700,9.931798583984374,7.958187202149629,1.6673092351034282,1.335237673397362
1772456742311818500,9.941818603515625,7.893555447763204,1.7260066310048103,1.42195047281906
1772456742321837300,9.95183740234375,7.723591679811477,1.7825448030456899,1.3523691332012415
1772456742331857400,9.961857421875,7.5170876949697725,1.844757513591647,1.2026752692095934
1772456742341876500,9.97187646484375,7.1068661411345,1.7702204512625932,0.8831704897403716
1772456742351895600,9.9818955078125,6.40607232619524,1.72797442394644,0.3541330252580345
1772456742361915600,9.99191552734375,5.455958297994733,2.0988588236495853,-0.3091691172853112
1772456742371934500,10.0019345703125,4.528871509638428,2.3657886356204747,-1.0209664106674492
1772456742381954300,10.011954345703124,3.302546923163533,1.9387267138823865,-1.3952188254989684
1772456742391973400,10.021973388671874,1.592918595507741,1.6430784646883605,-1.0884378454592079
1772456742401992700,10.03199267578125,-0.3396796986222267,1.3673314322724937,-0.0024745734199881552
1772456742412011800,10.04201171875,-2.6882150016248225,0.5493640670657157,0.6467629495441913
1772456742422032000,10.052031982421875,-5.04980150938034,-0.012843114960193634,0.6522530713930725
1772456742432051000,10.062051025390625,-6.801853851267695,-0.12126987967044114,0.17032719443663955
1772456742442069800,10.07206982421875,-7.791815321210026,-0.01678162345290184,-0.35379480627961457
1772456742452089900,10.08208984375,-8.14026401722133,0.033380291554331774,-0.49819480164684354
1772456742462109000,10.09210888671875,-7.980131907454132,0.49645139204561706,-0.7250060267843306
1772456742472128800,10.102128662109376,-7.240791211977601,1.6185031186193226,-1.1769631741955875
1772456742482147800,10.11214794921875,-6.130394851884246,2.8564424473032353,-0.8690640037808567
1772456742492168000,10.12216796875,-5.09609038234651,3.218075911319256,0.0741895640656352
1772456742502186800,10.132186767578125,-4.362929836809635,2.4470804329067466,0.526145250172168
1772456742512206800,10.142206787109375,-4.019817241129279,1.0267036391451954,0.30424013645052905
1772456742522226000,10.152225830078125,-4.232754473888874,-0.5443886167407036,-0.13613222549855708
1772456742532245000,10.162244873046875,-5.038365338608623,-2.1567831893518568,-0.49130233871936796
1772456742542264800,10.172264892578125,-5.713124548581242,-3.523333408118784,-0.7909554396405816
1772456742552283600,10.18228369140625,-5.516792998185753,-4.043253646296263,-1.4648967573590577
1772456742562303700,10.1923037109375,-4.525091991099715,-4.111177135704457,-2.061960002580285
1772456742572322800,10.20232275390625,-3.1560593078672885,-4.0905297767341136,-2.196530970111489
1772456742582343000,10.212343017578124,-1.7113117506980895,-3.916916838625073,-1.7263525218330322
1772456742592362000,10.222362060546875,-0.32199031267464157,-3.5448347535699605,-0.9511838493891059
1772456742602380800,10.232380859375,0.6865022547364235,-3.030465427517891,-0.2033642072449438
1772456742612401000,10.24240087890625,1.1795803709566592,-2.5017571949899193,0.30948998327013105
1772456742622419700,10.252419677734375,1.244068917480111,-2.088256473353505,0.4924957862876355
1772456742632439800,10.262439697265625,1.121918455582857,-1.827284400743246,0.3921490137889981
1772456742642459000,10.272458984375,1.1705980230778454,-1.5447630518868565,-0.016088745817914606
1772456742652479000,10.28247900390625,1.3531722662776708,-1.1500851041421294,-0.4882585871092975
1772456742662497800,10.292497802734376,1.607943146160245,-0.8239572532713413,-0.8738839712832123
1772456742672518000,10.302517822265624,2.0037854615092274,-0.4355822050631046,-1.1369823153324425
1772456742682537000,10.312536865234375,2.3878186811208724,-0.026643384514749048,-1.3925655345112085
1772456742692556000,10.32255615234375,2.7846055838435886,0.28560850121676923,-1.4801951565168796
1772456742702575900,10.332575927734375,3.1565719335645435,0.551467469085753,-1.3371265558838843
1772456742712594700,10.3425947265625,3.560835455778241,0.6922466436073184,-1.086310331911221
1772456742722614800,10.35261474609375,3.951626332956552,0.6938467722803354,-0.818207530638203
1772456742732633900,10.3626337890625,4.221417087316513,0.6006599545389414,-0.5744338455881923
1772456742742654000,10.372654052734376,4.203347177618742,0.4206713439181447,-0.3874908127196133
1772456742752673000,10.382673095703124,4.002195659720898,0.2387579027146101,-0.21787395850941538
1772456742762692000,10.392692138671874,3.696883510124683,0.16920418175607918,-0.07746281358264386
1772456742772711700,10.402711669921874,3.247057675653696,0.253937351667881,0.014776713371276855
1772456742782730800,10.412730712890625,2.6753262939572333,0.5067664498329162,0.04589548973441124
1772456742792750800,10.422750732421875,2.1165531780332327,0.8230679032161832,0.06663432638049126
1772456742802770000,10.43277001953125,1.4787293217480182,1.143407233813405,0.01602539825811982
1772456742812790000,10.4427900390625,0.781228703135252,1.3725488746598362,0.020432327980175614
1772456742822809000,10.45280908203125,0.22238135293126104,1.585271880146861,0.05173581326045096
1772456742832828700,10.46282861328125,-0.06448971556723117,1.7529717948198318,0.06372099621705711
1772456742842847700,10.47284765625,-0.27412147704064843,1.7829013613983988,0.2714533538099378
1772456742852866800,10.48286669921875,-0.4936690678507089,1.6930848968729375,0.536212105352059
1772456742862887000,10.492886962890625,-0.8351900104254484,1.6138251899361609,0.48734508899357165
1772456742872906000,10.502906005859375,-1.2463631658971308,1.5310007762551308,0.1629232383230701
1772456742882925800,10.51292578125,-1.7227572738200425,1.315013800536096,-0.2229455809515901
1772456742892945000,10.52294482421875,-2.044249573844671,0.9030290364205836,-0.5806068351346999
1772456742902964700,10.53296484375,-2.049559370690584,0.2977244709461927,-0.741935168949142
1772456742912983800,10.54298388671875,-1.9303964001715181,-0.3316325857669115,-0.713445279784873
1772456742923003000,10.5530029296875,-1.7184353189677,-0.7805018501654267,-0.74181526889652
1772456742933023000,10.56302294921875,-1.4597317758113144,-0.9760226686999202,-0.7444099615648389
1772456742943041800,10.573041748046874,-1.171514553400874,-0.9732333302423357,-0.5894601132737473
1772456742953062000,10.583061767578124,-0.979616601538658,-0.9042936495289206,-0.37306174374222756
1772456742963081000,10.5930810546875,-0.9354629870355129,-0.8316618362993001,-0.12592568785334005
1772456742973100800,10.603100830078125,-0.8978636164814233,-0.7893713853195309,-0.14119396586753427
1772456742983120000,10.613119873046875,-0.780525523301959,-0.8901233776181936,-0.4270172058135271
1772456742993140000,10.623139892578125,-0.6968114673048258,-1.0783061083495615,-0.49266485924422737
1772456743003158800,10.63315869140625,-0.676286565670371,-1.0389514185607434,-0.3170689671570435
1772456743013177900,10.643177734375,-0.5569102446615696,-0.7291860889479518,-0.2570553375579417
1772456743023198000,10.653197998046876,-0.3067904054552317,-0.4460872324645519,-0.19242836894448845
1772456743033217000,10.663217041015624,-0.22102701571285724,-0.34651334403455253,0.010351364359830039
1772456743043236900,10.67323681640625,-0.24314357045292853,-0.3437695982843637,0.22110928716883063
1772456743053255700,10.683255615234375,-0.1893961981743574,-0.3622749767899513,0.2293122481729835
1772456743063275800,10.69327587890625,-0.12395312740504741,-0.3987850908026099,0.1874984382616356
1772456743073294800,10.703294921875,-0.026656536257266997,-0.404793975828588,0.2503714393472299
1772456743083314000,10.71331396484375,0.08973053980767727,-0.41811669099926946,0.36124457429628815
1772456743093334000,10.723333984375,0.07501169410347938,-0.48667175630927084,0.4159609012048691
1772456743103352800,10.733352783203125,-0.04221183278560638,-0.48762701120749113,0.3435135046314448
1772456743113373000,10.743373046875,-0.13635259025096894,-0.4103454724758863,0.10502126711569726
1772456743123391700,10.753391845703124,-0.22930969088971614,-0.2892034569688141,-0.07193340090299025
1772456743133411800,10.763411865234374,-0.3116021896511316,-0.2234758701696992,0.028906050483416764
1772456743143431000,10.773430908203125,-0.18060966512858867,-0.14482391986772417,0.192006088411808
1772456743153451000,10.783450927734375,0.011392916151881217,-0.014810469510406255,0.26983926967680455
1772456743163469800,10.7934697265625,0.13825520900189875,0.04744461887255311,0.25366920225098727
1772456743173489000,10.803489013671875,0.21120646344423294,0.014573445884138345,0.12070212625246494
1772456743183509000,10.813509033203125,0.17695757236182688,0.06071282737702131,-0.2042361129749566
1772456743193528000,10.823528076171876,0.02128068843781948,0.27461013734042644,-0.48691027777288104
1772456743203548000,10.8335478515625,0.021930092257261277,0.11130027431994675,-0.3259956758584827
1772456743213566700,10.843566650390626,0.04243278205990791,-0.21728782918453216,0.03270999107733369
1772456743223586800,10.8535869140625,-0.01740121665596962,-0.4248381082087755,0.2485090795414522
1772456743233606000,10.86360595703125,-0.17144845355153082,-0.18176818751394747,-0.13599084426648914
1772456743243625000,10.873625,-0.2649497440695762,0.14106179085522888,-0.5073301481302828
1772456743253645000,10.88364501953125,-0.2541980484306812,0.36074879013597966,-0.357405544122681
1772456743263663900,10.893663818359375,-0.03666764266192913,0.24179624749720094,0.09179916277527808
