time,seconds_elapsed,z,y,x
1772456732443888400,0.073888427734375,-0.853790283203125,-0.1035614013671875,0.06146240234375
1772456732453908500,0.083908447265625,-0.83367919921875,-0.0665130615234375,0.074188232421875
1772456732463927600,0.093927490234375,-0.8203582763671875,-0.101287841796875,0.09027099609375
1772456732473947600,0.10394775390625,-0.7636871337890625,-0.1125030517578125,0.0648651123046875
1772456732483966500,0.113966552734375,-0.72967529296875,-0.1524200439453125,0.0641937255859375
1772456732493986600,0.123986572265625,-0.6968994140625,-0.1884765625,0.07513427734375
1772456732504005400,0.13400537109375,-0.6764678955078125,-0.2174224853515625,0.063995361328125
1772456732514025500,0.144025390625,-0.686981201171875,-0.24945068359375,0.03143310546875
1772456732524044500,0.15404443359375,-0.7126312255859375,-0.28070068359375,-0.0171966552734375
1772456732534064600,0.164064697265625,-0.7265472412109375,-0.3159332275390625,-0.0512847900390625
1772456732544083700,0.174083740234375,-0.732147216796875,-0.3538970947265625,-0.05938720703125
1772456732554103300,0.184103271484375,-0.7408599853515625,-0.4069671630859375,-0.068359375
1772456732564122400,0.194122314453125,-0.7791900634765625,-0.478668212890625,-0.07000732421875
1772456732574142500,0.204142578125,-0.8572845458984375,-0.5509185791015625,-0.067535400390625
1772456732584161500,0.21416162109375,-0.9627685546875,-0.614501953125,-0.0507354736328125
1772456732594181600,0.224181640625,-1.13287353515625,-0.59454345703125,-0.0356292724609375
1772456732604200700,0.23420068359375,-1.2089996337890625,-0.4454803466796875,-0.0511016845703125
1772456732614220300,0.24422021484375,-1.387939453125,-0.31854248046875,-0.17572021484375
1772456732624239400,0.2542392578125,-1.530609130859375,-0.33734130859375,-0.282989501953125
1772456732634259500,0.264259521484375,-1.57049560546875,-0.3755035400390625,-0.255279541015625
1772456732644278500,0.274278564453125,-1.5796661376953125,-0.335784912109375,-0.0790252685546875
1772456732654298600,0.284298583984375,-1.667236328125,-0.267852783203125,0.11383056640625
1772456732664317400,0.2943173828125,-1.7846832275390625,-0.1682281494140625,0.19775390625
1772456732674337300,0.304337158203125,-1.896240234375,-0.075775146484375,0.134033203125
1772456732684356400,0.3143564453125,-1.8981781005859375,0.0618438720703125,0.0724029541015625
1772456732694376400,0.32437646484375,-1.76043701171875,0.1953125,0.1068115234375
1772456732704395500,0.3343955078125,-1.5737762451171875,0.226715087890625,0.2129669189453125
1772456732714415600,0.34441552734375,-1.4117279052734375,0.1944427490234375,0.309814453125
1772456732724434400,0.354434326171875,-1.2678985595703125,0.1313629150390625,0.3552703857421875
1772456732734454300,0.364454345703125,-1.1438446044921875,0.0359344482421875,0.344207763671875
1772456732744473300,0.374473388671875,-1.0279541015625,-0.0648345947265625,0.2742767333984375
1772456732754493400,0.384493408203125,-0.9301605224609375,-0.1495361328125,0.1080322265625
1772456732764513500,0.394513427734375,-0.852752685546875,-0.24725341796875,-0.1122894287109375
1772456732774532600,0.40453271484375,-0.7805328369140625,-0.3687591552734375,-0.242462158203125
1772456732784552400,0.414552490234375,-0.694244384765625,-0.457489013671875,-0.2793426513671875
1772456732794571500,0.424571533203125,-0.6129608154296875,-0.4770050048828125,-0.2496490478515625
1772456732804591400,0.43459130859375,-0.588134765625,-0.441375732421875,-0.1430511474609375
1772456732814610400,0.4446103515625,-0.5953216552734375,-0.4654693603515625,-0.1293792724609375
1772456732824630500,0.454630615234375,-0.590087890625,-0.4467010498046875,-0.069915771484375
1772456732834649600,0.464649658203125,-0.5914459228515625,-0.3817901611328125,0.0194091796875
1772456732844669700,0.474669677734375,-0.5900115966796875,-0.316650390625,0.090362548828125
1772456732854688500,0.4846884765625,-0.582489013671875,-0.2701568603515625,0.1638031005859375
1772456732864708400,0.494708251953125,-0.572235107421875,-0.232025146484375,0.203704833984375
1772456732874727400,0.5047275390625,-0.554229736328125,-0.2137451171875,0.20159912109375
1772456732884747500,0.51474755859375,-0.5145721435546875,-0.181121826171875,0.20745849609375
1772456732894766600,0.5247666015625,-0.4538421630859375,-0.14105224609375,0.24652099609375
1772456732904786700,0.53478662109375,-0.3957672119140625,-0.1382293701171875,0.294189453125
1772456732914805500,0.544805419921875,-0.3526458740234375,-0.1484527587890625,0.2994384765625
1772456732924825300,0.554825439453125,-0.3632965087890625,-0.1336669921875,0.279022216796875
1772456732934844400,0.564844482421875,-0.3782958984375,-0.126800537109375,0.2581787109375
1772456732944864500,0.574864501953125,-0.3867340087890625,-0.151336669921875,0.251739501953125
1772456732954883600,0.584883544921875,-0.403717041015625,-0.1970367431640625,0.277191162109375
1772456732964903700,0.594903564453125,-0.4356536865234375,-0.2453155517578125,0.314788818359375
1772456732974922500,0.604922607421875,-0.5102081298828125,-0.29150390625,0.375579833984375
1772456732984942300,0.6149423828125,-0.646881103515625,-0.3182373046875,0.4215545654296875
1772456732994961400,0.62496142578125,-0.803253173828125,-0.3028717041015625,0.4271392822265625
1772456733004981500,0.6349814453125,-0.9456939697265625,-0.2664337158203125,0.38531494140625
1772456733015000600,0.64500048828125,-1.073211669921875,-0.2284088134765625,0.30377197265625
1772456733025020700,0.655020751953125,-1.2397003173828125,-0.2167510986328125,0.2103118896484375
1772456733035039500,0.66503955078125,-1.4190521240234375,-0.3084259033203125,0.11993408203125
1772456733045059300,0.675059326171875,-1.570220947265625,-0.4731597900390625,0.05682373046875
1772456733055078400,0.685078369140625,-1.6159210205078125,-0.59063720703125,-0.0059051513671875
1772456733065098500,0.695098388671875,-1.56591796875,-0.4995269775390625,-0.05169677734375
1772456733075117600,0.70511767578125,-1.491058349609375,-0.3671875,-0.02496337890625
1772456733085137700,0.7151376953125,-1.4989166259765625,-0.3241424560546875,-0.0915374755859375
1772456733095157500,0.725157470703125,-1.576904296875,-0.2664947509765625,-0.244903564453125
1772456733105176600,0.735176513671875,-1.629608154296875,-0.1904449462890625,-0.365509033203125
1772456733115196400,0.745196533203125,-1.6606903076171875,-0.132476806640625,-0.395538330078125
1772456733125215500,0.755215576171875,-1.6768035888671875,-0.1021728515625,-0.30926513671875
1772456733135235600,0.765235595703125,-1.6690521240234375,-0.098297119140625,-0.1543426513671875
1772456733145254400,0.77525439453125,-1.62420654296875,-0.1091766357421875,0.0146331787109375
1772456733155274500,0.7852744140625,-1.54046630859375,-0.13262939453125,0.1780242919921875
1772456733165293600,0.79529345703125,-1.448974609375,-0.19366455078125,0.2859344482421875
1772456733175313400,0.8053134765625,-1.3804168701171875,-0.2798004150390625,0.361236572265625
1772456733185332500,0.81533251953125,-1.343536376953125,-0.372802734375,0.3909454345703125
1772456733195352600,0.8253525390625,-1.3201904296875,-0.4623870849609375,0.3338775634765625
1772456733205371400,0.835371337890625,-1.2663726806640625,-0.5012664794921875,0.224456787109375
1772456733215391500,0.8453916015625,-1.1703643798828125,-0.4876708984375,0.1371917724609375
1772456733225410600,0.85541064453125,-1.03717041015625,-0.4541778564453125,0.11553955078125
1772456733235430400,0.865430419921875,-0.88427734375,-0.4217071533203125,0.15625
1772456733245449500,0.875449462890625,-0.7492218017578125,-0.3894500732421875,0.223876953125
1772456733255469600,0.885469482421875,-0.6378631591796875,-0.3496551513671875,0.291595458984375
1772456733265488400,0.89548828125,-0.55450439453125,-0.2992095947265625,0.343902587890625
1772456733275508500,0.905508544921875,-0.5078277587890625,-0.2613983154296875,0.3673248291015625
1772456733285527600,0.915527587890625,-0.4761199951171875,-0.24993896484375,0.331024169921875
1772456733295547400,0.92554736328125,-0.4340057373046875,-0.2492523193359375,0.246307373046875
1772456733305566500,0.93556640625,-0.3791046142578125,-0.2302703857421875,0.1439208984375
1772456733315586600,0.945586669921875,-0.3080596923828125,-0.1971588134765625,0.064727783203125
1772456733325605400,0.95560546875,-0.2552337646484375,-0.1656341552734375,0.0411834716796875
1772456733335625500,0.96562548828125,-0.2152252197265625,-0.1426239013671875,0.065673828125
1772456733345644500,0.97564453125,-0.1820220947265625,-0.135467529296875,0.1352691650390625
1772456733355664400,0.985664306640625,-0.1667633056640625,-0.1428680419921875,0.22314453125
1772456733365683500,0.995683349609375,-0.1940765380859375,-0.1672210693359375,0.274993896484375
1772456733375703600,1.00570361328125,-0.256378173828125,-0.1956024169921875,0.2408905029296875
1772456733385722400,1.015722412109375,-0.3388519287109375,-0.22119140625,0.136566162109375
1772456733395742200,1.0257421875,-0.44891357421875,-0.2462158203125,0.0237579345703125
1772456733405761300,1.03576123046875,-0.5565185546875,-0.267120361328125,-0.0546112060546875
1772456733415781400,1.045781494140625,-0.6483612060546875,-0.27789306640625,-0.066558837890625
1772456733425800400,1.055800537109375,-0.711029052734375,-0.275909423828125,-0.03509521484375
1772456733435820300,1.0658203125,-0.79254150390625,-0.297027587890625,-0.0081024169921875
1772456733445839000,1.075839111328125,-0.923004150390625,-0.3542327880859375,-0.0350189208984375
1772456733455859200,1.085859130859375,-1.1395721435546875,-0.44757080078125,-0.089569091796875
1772456733465878300,1.095878173828125,-1.453948974609375,-0.5410308837890625,-0.1143035888671875
1772456733475898400,1.1058984375,-1.7302703857421875,-0.597900390625,-0.0785675048828125
1772456733485917400,1.11591748046875,-1.8505706787109375,-0.595672607421875,0.00006103515625
1772456733495937300,1.125937255859375,-1.818389892578125,-0.53179931640625,0.079254150390625
1772456733505956000,1.1359560546875,-1.7111663818359375,-0.434356689453125,0.1048736572265625
1772456733515976200,1.14597607421875,-1.6077423095703125,-0.3442840576171875,0.07244873046875
1772456733525995300,1.155995361328125,-1.5092010498046875,-0.2509307861328125,0.0365753173828125
1772456733536015400,1.166015380859375,-1.410552978515625,-0.1472625732421875,0.0142974853515625
1772456733546034400,1.176034423828125,-1.327789306640625,-0.087921142578125,0.01019287109375
1772456733556054300,1.18605419921875,-1.285400390625,-0.109619140625,0.03375244140625
1772456733566074400,1.196074462890625,-1.275360107421875,-0.1873016357421875,0.060760498046875
1772456733576093200,1.20609326171875,-1.2736968994140625,-0.281585693359375,0.07586669921875
1772456733586113300,1.21611328125,-1.2693023681640625,-0.371063232421875,0.06658935546875
1772456733596132400,1.22613232421875,-1.2742462158203125,-0.4462432861328125,0.0635223388671875
1772456733606152200,1.236152099609375,-1.27490234375,-0.4945831298828125,0.12933349609375
1772456733616171300,1.246171142578125,-1.236602783203125,-0.484954833984375,0.23382568359375
1772456733626191400,1.25619140625,-1.1822967529296875,-0.45904541015625,0.297149658203125
1772456733636210200,1.266210205078125,-1.1654052734375,-0.4516754150390625,0.2989501953125
1772456733646230300,1.276230224609375,-1.1378173828125,-0.411651611328125,0.2833099365234375
1772456733656249300,1.286249267578125,-1.0808563232421875,-0.346221923828125,0.2703857421875
1772456733666269200,1.296269287109375,-1.0010528564453125,-0.295257568359375,0.2366485595703125
1772456733676288300,1.306288330078125,-0.902313232421875,-0.2786712646484375,0.1972198486328125
1772456733686308400,1.316308349609375,-0.79180908203125,-0.290191650390625,0.1880340576171875
1772456733696327200,1.3263271484375,-0.674102783203125,-0.3066864013671875,0.1888275146484375
1772456733706347300,1.33634716796875,-0.5441131591796875,-0.312042236328125,0.1852264404296875
1772456733716366300,1.346366455078125,-0.419921875,-0.30157470703125,0.1886138916015625
1772456733726386400,1.356386474609375,-0.3319549560546875,-0.282989501953125,0.1832275390625
1772456733736405200,1.3664052734375,-0.2618560791015625,-0.2314605712890625,0.15032958984375
1772456733746425300,1.37642529296875,-0.2132720947265625,-0.163482666015625,0.10931396484375
1772456733756444200,1.386444091796875,-0.182342529296875,-0.1131591796875,0.080078125
1772456733766464300,1.39646435546875,-0.1646728515625,-0.0908050537109375,0.090057373046875
1772456733776483300,1.4064833984375,-0.16510009765625,-0.0885009765625,0.12164306640625
1772456733786503400,1.41650341796875,-0.18487548828125,-0.1080322265625,0.1616363525390625
1772456733796522500,1.4265224609375,-0.206298828125,-0.134246826171875,0.187255859375
1772456733806542300,1.436542236328125,-0.23773193359375,-0.1529541015625,0.1898651123046875
1772456733816561200,1.44656103515625,-0.2924346923828125,-0.18585205078125,0.1870269775390625
1772456733826581200,1.456581298828125,-0.37445068359375,-0.23291015625,0.19873046875
1772456733836600300,1.466600341796875,-0.493499755859375,-0.2757415771484375,0.2198944091796875
1772456733846620400,1.476620361328125,-0.62750244140625,-0.2942657470703125,0.1978302001953125
1772456733856639500,1.486639404296875,-0.709197998046875,-0.255584716796875,0.11651611328125
1772456733866659000,1.4966591796875,-0.7231597900390625,-0.1792144775390625,0.05841064453125
1772456733876678100,1.50667822265625,-0.746978759765625,-0.1245574951171875,0.0800323486328125
1772456733886698200,1.5166982421875,-0.8894195556640625,-0.17718505859375,0.1776123046875
1772456733896717300,1.52671728515625,-1.146820068359375,-0.3718109130859375,0.261688232421875
1772456733906737400,1.5367373046875,-1.41510009765625,-0.5750274658203125,0.2212982177734375
1772456733916756500,1.546756591796875,-1.567291259765625,-0.6261444091796875,0.0395660400390625
1772456733926776000,1.556776123046875,-1.59088134765625,-0.52838134765625,-0.117645263671875
1772456733936795100,1.566795166015625,-1.59259033203125,-0.3973541259765625,-0.1500396728515625
1772456733946815200,1.576815185546875,-1.6212921142578125,-0.2944183349609375,-0.11724853515625
1772456733956834300,1.586834228515625,-1.66680908203125,-0.216461181640625,-0.0813751220703125
1772456733966854400,1.5968544921875,-1.71002197265625,-0.188262939453125,-0.0770263671875
1772456733976873500,1.60687353515625,-1.786163330078125,-0.2606964111328125,-0.048004150390625
1772456733986893000,1.61689306640625,-1.855926513671875,-0.3881378173828125,-0.007415771484375
1772456733996912000,1.626912109375,-1.8365478515625,-0.509429931640625,0.0367431640625
1772456734006932200,1.63693212890625,-1.739044189453125,-0.60516357421875,0.0602569580078125
1772456734016951300,1.646951416015625,-1.599639892578125,-0.686614990234375,0.0476531982421875
1772456734026971400,1.656971435546875,-1.4231719970703125,-0.7750091552734375,0.0246429443359375
1772456734036990200,1.666990234375,-1.216949462890625,-0.842041015625,0.019927978515625
1772456734047010300,1.67701025390625,-1.07379150390625,-0.854217529296875,0.025146484375
1772456734057029000,1.687029052734375,-0.9957275390625,-0.8053741455078125,0.0512237548828125
1772456734067049200,1.69704931640625,-0.983642578125,-0.7317352294921875,0.0863189697265625
1772456734077068300,1.707068359375,-1.0267333984375,-0.6541595458984375,0.0993499755859375
1772456734087088400,1.71708837890625,-1.035736083984375,-0.5652618408203125,0.075714111328125
1772456734097107200,1.727107177734375,-0.99371337890625,-0.4900054931640625,0.0646820068359375
1772456734107127300,1.737127197265625,-0.897003173828125,-0.425811767578125,0.092193603515625
1772456734117146400,1.747146484375,-0.7580108642578125,-0.37261962890625,0.1584320068359375
1772456734127166200,1.757166259765625,-0.610870361328125,-0.32080078125,0.2133331298828125
1772456734137185300,1.767185302734375,-0.4814300537109375,-0.280303955078125,0.2402191162109375
1772456734147205400,1.777205322265625,-0.374359130859375,-0.25,0.229766845703125
1772456734157224200,1.78722412109375,-0.286529541015625,-0.21527099609375,0.2093963623046875
1772456734167244300,1.797244384765625,-0.22149658203125,-0.1693878173828125,0.191162109375
1772456734177263400,1.807263427734375,-0.1714630126953125,-0.1079254150390625,0.1915740966796875
1772456734187283200,1.817283203125,-0.1469268798828125,-0.054046630859375,0.2088165283203125
1772456734197302300,1.82730224609375,-0.15838623046875,-0.0250244140625,0.235076904296875
1772456734207322400,1.837322265625,-0.215087890625,-0.0273284912109375,0.2502288818359375
1772456734217341200,1.847341064453125,-0.3087615966796875,-0.0292816162109375,0.2373199462890625
1772456734227361300,1.857361328125,-0.397308349609375,0.0006256103515625,0.201629638671875
1772456734237380400,1.86738037109375,-0.4893798828125,-0.007843017578125,0.120574951171875
1772456734247400200,1.877400146484375,-0.5629730224609375,-0.073333740234375,0.0281829833984375
1772456734257419300,1.887419189453125,-0.60821533203125,-0.146392822265625,-0.0239715576171875
1772456734267439400,1.897439453125,-0.6032867431640625,-0.1781005859375,-0.0774993896484375
1772456734277458200,1.907458251953125,-0.615997314453125,-0.2836761474609375,-0.1187286376953125
1772456734287478300,1.917478271484375,-0.598968505859375,-0.4147186279296875,-0.1601409912109375
1772456734297497300,1.927497314453125,-0.705322265625,-0.48919677734375,-0.163421630859375
1772456734307517200,1.93751708984375,-0.8121490478515625,-0.538055419921875,-0.1039276123046875
1772456734317536300,1.947536376953125,-1.0118255615234375,-0.626708984375,0.0903167724609375
1772456734327556400,1.957556396484375,-1.319488525390625,-0.67578125,0.1479034423828125
1772456734337575200,1.9675751953125,-1.59564208984375,-0.6396331787109375,0.0285186767578125
1772456734347595300,1.97759521484375,-1.7816162109375,-0.5657196044921875,-0.096099853515625
1772456734357614300,1.9876142578125,-1.8229827880859375,-0.45513916015625,-0.134857177734375
1772456734367634200,1.99763427734375,-1.7602386474609375,-0.3317108154296875,-0.12884521484375
1772456734377653200,2.0076533203125,-1.65130615234375,-0.234375,-0.1243743896484375
1772456734387673300,2.01767333984375,-1.5469970703125,-0.149078369140625,-0.08465576171875
1772456734397691600,2.027691650390625,-1.4806060791015625,-0.110931396484375,-0.0407867431640625
1772456734407711700,2.037711669921875,-1.4886322021484375,-0.1507110595703125,-0.0233917236328125
1772456734417730600,2.04773046875,-1.5634918212890625,-0.2571868896484375,-0.011993408203125
1772456734427750700,2.057750732421875,-1.62615966796875,-0.3658447265625,0.00244140625
1772456734437769700,2.067769775390625,-1.5970916748046875,-0.4175872802734375,-0.002471923828125
1772456734447789600,2.07778955078125,-1.451263427734375,-0.4286956787109375,-0.001678466796875
1772456734457808600,2.08780859375,-1.2478179931640625,-0.44830322265625,0.057220458984375
1772456734467828700,2.097828857421875,-1.0723114013671875,-0.49493408203125,0.2006072998046875
1772456734477847600,2.10784765625,-0.94537353515625,-0.52191162109375,0.3153076171875
1772456734487867600,2.11786767578125,-0.8799591064453125,-0.515380859375,0.3146820068359375
1772456734497886700,2.12788671875,-0.8386077880859375,-0.4858551025390625,0.246490478515625
1772456734507906600,2.137906494140625,-0.7702178955078125,-0.452728271484375,0.1898040771484375
1772456734517925600,2.147925537109375,-0.67523193359375,-0.42828369140625,0.181854248046875
1772456734527945700,2.15794580078125,-0.594757080078125,-0.416229248046875,0.2085113525390625
1772456734537964500,2.167964599609375,-0.5484161376953125,-0.3979339599609375,0.234710693359375
1772456734547984600,2.177984619140625,-0.5214996337890625,-0.3619842529296875,0.256591796875
1772456734558003700,2.188003662109375,-0.5040740966796875,-0.3267059326171875,0.257354736328125
1772456734568023800,2.19802392578125,-0.4772491455078125,-0.2918548583984375,0.2438812255859375
1772456734578042600,2.208042724609375,-0.4369049072265625,-0.2529754638671875,0.2254180908203125
1772456734588062700,2.218062744140625,-0.3883209228515625,-0.2111053466796875,0.2004852294921875
1772456734598081500,2.22808154296875,-0.3413543701171875,-0.177825927734375,0.1877899169921875
1772456734608101600,2.2381015625,-0.3021087646484375,-0.1389007568359375,0.1981964111328125
1772456734618120700,2.24812060546875,-0.27618408203125,-0.1074371337890625,0.216033935546875
1772456734628140800,2.258140869140625,-0.272674560546875,-0.1305084228515625,0.2089385986328125
1772456734638160000,2.268159912109375,-0.3023681640625,-0.1584930419921875,0.219085693359375
1772456734648179700,2.2781796875,-0.3416748046875,-0.1752166748046875,0.238006591796875
1772456734658198500,2.288198486328125,-0.38385009765625,-0.18133544921875,0.2320709228515625
1772456734668218600,2.298218505859375,-0.4450836181640625,-0.201568603515625,0.2058868408203125
1772456734678237700,2.30823779296875,-0.52337646484375,-0.2369842529296875,0.18402099609375
1772456734688257800,2.3182578125,-0.600738525390625,-0.2688751220703125,0.13494873046875
1772456734698276900,2.32827685546875,-0.7015533447265625,-0.2996063232421875,0.0296783447265625
1772456734708296400,2.33829638671875,-0.84930419921875,-0.3419036865234375,-0.0550689697265625
1772456734718315500,2.3483154296875,-1.0787811279296875,-0.402557373046875,-0.02899169921875
1772456734728335600,2.358335693359375,-1.3782958984375,-0.5047760009765625,0.0355072021484375
1772456734738354700,2.368354736328125,-1.6732635498046875,-0.641876220703125,0.0471649169921875
1772456734748373800,2.378373779296875,-1.905914306640625,-0.7484893798828125,-0.0303955078125
1772456734758393900,2.388393798828125,-1.98980712890625,-0.7482757568359375,-0.1094970703125
1772456734768413400,2.398413330078125,-1.93963623046875,-0.633392333984375,-0.126739501953125
1772456734778432500,2.4084326171875,-1.852508544921875,-0.4879608154296875,-0.0965423583984375
1772456734788451600,2.41845166015625,-1.816497802734375,-0.334259033203125,-0.1256561279296875
1772456734798471700,2.4284716796875,-1.845489501953125,-0.1588897705078125,-0.25408935546875
1772456734808490800,2.43849072265625,-1.8979034423828125,-0.004608154296875,-0.3656768798828125
1772456734818510800,2.4485107421875,-1.94189453125,0.050506591796875,-0.3861541748046875
1772456734828529700,2.45852978515625,-1.9351959228515625,-0.024871826171875,-0.3062286376953125
1772456734838549500,2.468549560546875,-1.8506927490234375,-0.1732940673828125,-0.1565704345703125
1772456734848568600,2.478568603515625,-1.6794281005859375,-0.314727783203125,-0.0223236083984375
1772456734858588700,2.488588623046875,-1.4474029541015625,-0.4219970703125,0.0949249267578125
1772456734868607700,2.498607666015625,-1.1873016357421875,-0.5162353515625,0.2173004150390625
1772456734878627600,2.508627685546875,-0.9541168212890625,-0.6126861572265625,0.31365966796875
1772456734888646700,2.518646728515625,-0.7849578857421875,-0.7068939208984375,0.339324951171875
1772456734898666500,2.52866650390625,-0.6821441650390625,-0.770538330078125,0.342376708984375
1772456734908685600,2.538685546875,-0.6036529541015625,-0.7536468505859375,0.302642822265625
1772456734918705700,2.54870556640625,-0.56207275390625,-0.668701171875,0.248687744140625
1772456734928724700,2.558724853515625,-0.562347412109375,-0.57470703125,0.206390380859375
1772456734938744600,2.56874462890625,-0.5659332275390625,-0.4893798828125,0.1990966796875
1772456734948763600,2.578763671875,-0.5405426025390625,-0.391754150390625,0.2339324951171875
1772456734958783700,2.58878369140625,-0.4887237548828125,-0.307373046875,0.252197265625
1772456734968802800,2.598802734375,-0.44189453125,-0.2526397705078125,0.2387237548828125
1772456734978822700,2.60882275390625,-0.4001922607421875,-0.2118682861328125,0.20428466796875
1772456734988841700,2.618841796875,-0.3471221923828125,-0.1788330078125,0.1525421142578125
1772456734998861600,2.628861572265625,-0.28167724609375,-0.1499481201171875,0.0970611572265625
1772456735008880600,2.638880615234375,-0.2213134765625,-0.1288604736328125,0.0626678466796875
1772456735018900700,2.648900634765625,-0.1974029541015625,-0.11712646484375,0.050262451171875
1772456735028919800,2.658919921875,-0.20428466796875,-0.10992431640625,0.0557098388671875
1772456735038939600,2.668939697265625,-0.2236480712890625,-0.113922119140625,0.08123779296875
1772456735048958500,2.67895849609375,-0.230621337890625,-0.0998382568359375,0.1209869384765625
1772456735058978600,2.688978515625,-0.2197418212890625,-0.0867156982421875,0.165679931640625
1772456735068997600,2.69899755859375,-0.228179931640625,-0.0976715087890625,0.2239837646484375
1772456735079017700,2.709017822265625,-0.2753448486328125,-0.126220703125,0.2907867431640625
1772456735089036800,2.719036865234375,-0.3319244384765625,-0.14935302734375,0.3224639892578125
1772456735099056600,2.729056640625,-0.382080078125,-0.16943359375,0.3151702880859375
1772456735109075500,2.739075439453125,-0.4290618896484375,-0.1914520263671875,0.2561187744140625
1772456735119095600,2.749095458984375,-0.49725341796875,-0.2153167724609375,0.14129638671875
1772456735129114600,2.759114501953125,-0.607086181640625,-0.2240447998046875,0.012786865234375
1772456735139134700,2.769134765625,-0.8087158203125,-0.2503662109375,-0.0273284912109375
1772456735149153800,2.77915380859375,-1.1180267333984375,-0.358367919921875,0.02813720703125
1772456735159173600,2.789173583984375,-1.443572998046875,-0.50030517578125,0.0983734130859375
1772456735169192400,2.7991923828125,-1.725799560546875,-0.593597412109375,0.077362060546875
1772456735179212500,2.809212646484375,-1.9211883544921875,-0.52764892578125,-0.0227813720703125
1772456735189231600,2.819231689453125,-1.9685211181640625,-0.4117279052734375,-0.06268310546875
1772456735199251700,2.829251708984375,-1.995880126953125,-0.3387603759765625,-0.06024169921875
1772456735209270800,2.839270751953125,-2.0243072509765625,-0.2732696533203125,-0.1140594482421875
1772456735219290600,2.84929052734375,-2.02008056640625,-0.1691436767578125,-0.2169952392578125
1772456735229309400,2.859309326171875,-1.974395751953125,-0.065765380859375,-0.31134033203125
1772456735239329500,2.86932958984375,-1.9163665771484375,-0.044647216796875,-0.34478759765625
1772456735249348600,2.8793486328125,-1.8487548828125,-0.1268157958984375,-0.3148193359375
1772456735259368700,2.88936865234375,-1.772705078125,-0.2580718994140625,-0.2564239501953125
1772456735269387800,2.8993876953125,-1.668212890625,-0.3616790771484375,-0.186737060546875
1772456735279406600,2.909406494140625,-1.5152587890625,-0.41986083984375,-0.1348724365234375
1772456735289426700,2.9194267578125,-1.345306396484375,-0.4722442626953125,-0.0978240966796875
1772456735299446500,2.929446533203125,-1.18133544921875,-0.528533935546875,-0.028472900390625
1772456735309465600,2.939465576171875,-1.06103515625,-0.587371826171875,0.085296630859375
1772456735319484700,2.949484619140625,-0.9938812255859375,-0.62286376953125,0.1575469970703125
1772456735329504800,2.9595048828125,-0.9733123779296875,-0.6175384521484375,0.16656494140625
1772456735339523600,2.969523681640625,-0.9678497314453125,-0.571563720703125,0.1328887939453125
1772456735349543700,2.979543701171875,-0.9423065185546875,-0.531494140625,0.0991973876953125
1772456735359562800,2.989562744140625,-0.8833465576171875,-0.50018310546875,0.0908050537109375
1772456735369582600,2.99958251953125,-0.7969970703125,-0.4832611083984375,0.11102294921875
1772456735379601700,3.0096015625,-0.6880645751953125,-0.4748992919921875,0.1380462646484375
1772456735389621800,3.019621826171875,-0.554412841796875,-0.443634033203125,0.1630706787109375
1772456735399641600,3.0296416015625,-0.4159698486328125,-0.39532470703125,0.1832427978515625
1772456735409661400,3.039661376953125,-0.2974853515625,-0.351776123046875,0.2019805908203125
1772456735419680500,3.049680419921875,-0.2172698974609375,-0.304168701171875,0.19439697265625
1772456735429700600,3.05970068359375,-0.1571807861328125,-0.267608642578125,0.177764892578125
1772456735439719400,3.069719482421875,-0.1239471435546875,-0.256500244140625,0.1689453125
1772456735449739500,3.079739501953125,-0.112884521484375,-0.2526702880859375,0.1634674072265625
1772456735459758600,3.089758544921875,-0.11468505859375,-0.2376861572265625,0.1729583740234375
1772456735469778400,3.0997783203125,-0.1313629150390625,-0.2201080322265625,0.2056427001953125
1772456735479797500,3.109797607421875,-0.168121337890625,-0.2092437744140625,0.239501953125
1772456735489817600,3.119817626953125,-0.2138519287109375,-0.19024658203125,0.265594482421875
1772456735499836400,3.12983642578125,-0.27734375,-0.167724609375,0.28851318359375
1772456735509856500,3.1398564453125,-0.3441925048828125,-0.1596832275390625,0.2973785400390625
1772456735519875600,3.14987548828125,-0.4095611572265625,-0.1694183349609375,0.274871826171875
1772456735529895400,3.1598955078125,-0.484466552734375,-0.1884002685546875,0.2173004150390625
1772456735539914500,3.16991455078125,-0.550201416015625,-0.1983642578125,0.132080078125
1772456735549934600,3.1799345703125,-0.6172943115234375,-0.2099456787109375,0.0432281494140625
1772456735559953400,3.189953369140625,-0.7082366943359375,-0.164520263671875,0.008636474609375
1772456735569973500,3.199973388671875,-0.891143798828125,-0.1926422119140625,0.1048126220703125
1772456735579992600,3.20999267578125,-1.177520751953125,-0.34356689453125,0.2236175537109375
1772456735590012700,3.2200126953125,-1.496429443359375,-0.470428466796875,0.2126617431640625
1772456735600031500,3.230031494140625,-1.7763519287109375,-0.5117645263671875,0.0579071044921875
1772456735610051600,3.240051513671875,-1.9268646240234375,-0.511749267578125,-0.0893402099609375
1772456735620070400,3.2500703125,-1.92755126953125,-0.4808502197265625,-0.1392974853515625
1772456735630090500,3.260090576171875,-1.800567626953125,-0.4547576904296875,-0.11761474609375
1772456735640109600,3.270109619140625,-1.6900634765625,-0.4406280517578125,-0.0997772216796875
1772456735650129700,3.280129638671875,-1.642974853515625,-0.3562774658203125,-0.1215362548828125
1772456735660148700,3.290148681640625,-1.610382080078125,-0.2513427734375,-0.1147308349609375
1772456735670168600,3.30016845703125,-1.61749267578125,-0.2557830810546875,-0.0287322998046875
1772456735680187400,3.3101875,-1.65313720703125,-0.3538055419921875,0.108184814453125
1772456735690206500,3.32020654296875,-1.6695404052734375,-0.46990966796875,0.1875
1772456735700226600,3.3302265625,-1.619842529296875,-0.543304443359375,0.2086181640625
1772456735710245600,3.34024560546875,-1.5018157958984375,-0.5690155029296875,0.19549560546875
1772456735720265700,3.350265625,-1.348724365234375,-0.5727081298828125,0.1581573486328125
1772456735730284500,3.360284423828125,-1.1909637451171875,-0.5746307373046875,0.12713623046875
1772456735740304400,3.370304443359375,-1.035797119140625,-0.5651092529296875,0.123382568359375
1772456735750323500,3.380323486328125,-0.8668060302734375,-0.542694091796875,0.1387481689453125
1772456735760343600,3.390343505859375,-0.70751953125,-0.5224151611328125,0.162567138671875
1772456735770362600,3.400362548828125,-0.583221435546875,-0.49749755859375,0.2003173828125
1772456735780382700,3.4103828125,-0.5173492431640625,-0.476898193359375,0.2375030517578125
1772456735790401500,3.420401611328125,-0.4936981201171875,-0.45733642578125,0.2611846923828125
1772456735800421400,3.43042138671875,-0.4794769287109375,-0.4227294921875,0.260345458984375
1772456735810440400,3.4404404296875,-0.453094482421875,-0.3702545166015625,0.2396087646484375
1772456735820460500,3.45046044921875,-0.4140472412109375,-0.31005859375,0.2034759521484375
1772456735830479600,3.460479736328125,-0.3679656982421875,-0.25372314453125,0.1506195068359375
1772456735840499700,3.470499755859375,-0.3254547119140625,-0.2085418701171875,0.1023101806640625
1772456735850518500,3.4805185546875,-0.284271240234375,-0.174468994140625,0.0643768310546875
1772456735860538400,3.490538330078125,-0.24139404296875,-0.149383544921875,0.0388031005859375
1772456735870557400,3.500557373046875,-0.21185302734375,-0.133697509765625,0.0166778564453125
1772456735880577500,3.51057763671875,-0.1918182373046875,-0.142730712890625,-0.0067291259765625
1772456735890596600,3.5205966796875,-0.211639404296875,-0.16790771484375,-0.023040771484375
1772456735900616700,3.53061669921875,-0.25714111328125,-0.19061279296875,-0.0120391845703125
1772456735910635500,3.540635498046875,-0.3177947998046875,-0.20086669921875,0.0183563232421875
1772456735920655600,3.550655517578125,-0.378570556640625,-0.1716461181640625,0.0750732421875
1772456735930674400,3.56067431640625,-0.45977783203125,-0.10394287109375,0.155914306640625
1772456735940694500,3.570694580078125,-0.5565643310546875,-0.0510711669921875,0.220794677734375
1772456735950713600,3.580713623046875,-0.647613525390625,-0.0615234375,0.1884613037109375
1772456735960733400,3.5907333984375,-0.6978759765625,-0.1190032958984375,0.0605316162109375
1772456735970752500,3.60075244140625,-0.717071533203125,-0.204681396484375,-0.08575439453125
1772456735980772600,3.610772705078125,-0.803466796875,-0.3307037353515625,-0.1465301513671875
1772456735990791700,3.620791748046875,-1.0050811767578125,-0.4912567138671875,-0.0979156494140625
1772456736000810500,3.630810546875,-1.2630462646484375,-0.6490936279296875,0.0099639892578125
1772456736010830600,3.64083056640625,-1.49267578125,-0.7136688232421875,0.1103668212890625
1772456736020849400,3.650849365234375,-1.630584716796875,-0.6657562255859375,0.1136474609375
1772456736030869500,3.660869384765625,-1.6803436279296875,-0.556060791015625,0.109222412109375
1772456736040888600,3.670888671875,-1.6757965087890625,-0.442352294921875,0.1528472900390625
1772456736050908700,3.68090869140625,-1.760589599609375,-0.3513946533203125,0.206268310546875
1772456736060927700,3.690927734375,-1.90496826171875,-0.2385711669921875,0.12188720703125
1772456736070947600,3.700947509765625,-1.9555816650390625,-0.108795166015625,-0.038421630859375
1772456736080966400,3.71096630859375,-1.9174346923828125,-0.046600341796875,-0.1225128173828125
1772456736090986500,3.720986572265625,-1.812286376953125,-0.1022491455078125,-0.1046295166015625
1772456736101005600,3.731005615234375,-1.7344818115234375,-0.255401611328125,-0.0081329345703125
1772456736111025700,3.741025634765625,-1.62640380859375,-0.388885498046875,0.0736846923828125
1772456736121044700,3.751044677734375,-1.4852142333984375,-0.4817962646484375,0.114990234375
1772456736131064300,3.761064208984375,-1.29608154296875,-0.557159423828125,0.163848876953125
1772456736141083400,3.77108349609375,-1.0774993896484375,-0.5618743896484375,0.219268798828125
1772456736151103500,3.781103515625,-0.939727783203125,-0.50830078125,0.1794281005859375
1772456736161122600,3.79112255859375,-1.0352020263671875,-0.436248779296875,0.0562591552734375
1772456736171142700,3.801142578125,-1.23040771484375,-0.3318023681640625,-0.090087890625
1772456736181161700,3.81116162109375,-1.365753173828125,-0.240203857421875,-0.1793060302734375
1772456736191181300,3.821181396484375,-1.387969970703125,-0.195526123046875,-0.16534423828125
1772456736201200400,3.831200439453125,-1.26458740234375,-0.2060546875,-0.0550689697265625
1772456736211220500,3.841220458984375,-1.068511962890625,-0.2433929443359375,0.1079254150390625
1772456736221239600,3.851239501953125,-0.842041015625,-0.2661895751953125,0.2467498779296875
1772456736231259600,3.861259765625,-0.634429931640625,-0.28759765625,0.334442138671875
1772456736241278700,3.87127880859375,-0.4777679443359375,-0.308319091796875,0.3694915771484375
1772456736251298300,3.88129833984375,-0.3459014892578125,-0.31732177734375,0.359588623046875
1772456736261317400,3.8913173828125,-0.250946044921875,-0.3127899169921875,0.3240966796875
1772456736271336400,3.90133642578125,-0.207244873046875,-0.3061370849609375,0.26727294921875
1772456736281356500,3.9113564453125,-0.2015838623046875,-0.2869720458984375,0.2087249755859375
1772456736291375600,3.921375732421875,-0.218597412109375,-0.265380859375,0.1731719970703125
1772456736301395500,3.9313955078125,-0.252166748046875,-0.263580322265625,0.1100616455078125
1772456736311414500,3.94141455078125,-0.298919677734375,-0.2510986328125,0.0049591064453125
1772456736321434600,3.9514345703125,-0.359710693359375,-0.2118988037109375,-0.0487060546875
1772456736331453400,3.961453369140625,-0.384429931640625,-0.205108642578125,-0.0419769287109375
1772456736341473500,3.9714736328125,-0.3925018310546875,-0.2296142578125,-0.0164794921875
1772456736351492600,3.98149267578125,-0.413055419921875,-0.2768402099609375,0.0238189697265625
1772456736361512400,3.991512451171875,-0.435211181640625,-0.316650390625,0.081268310546875
1772456736371531500,4.001531494140625,-0.454315185546875,-0.33380126953125,0.1365509033203125
1772456736381551600,4.011551513671875,-0.4566802978515625,-0.341339111328125,0.1773681640625
1772456736391570000,4.02156982421875,-0.4605255126953125,-0.3505401611328125,0.158447265625
1772456736401589800,4.03158984375,-0.5358734130859375,-0.3713226318359375,0.07110595703125
1772456736411608600,4.041608642578125,-0.723846435546875,-0.39166259765625,-0.07513427734375
1772456736421628700,4.051628662109375,-1.032684326171875,-0.414520263671875,-0.1898651123046875
1772456736431647700,4.061647705078125,-1.4127044677734375,-0.4622802734375,-0.2321624755859375
1772456736441667800,4.071667724609375,-1.76055908203125,-0.5252227783203125,-0.2365264892578125
1772456736451687000,4.08168701171875,-1.9582366943359375,-0.58111572265625,-0.2217254638671875
1772456736461706800,4.091706787109375,-1.9499664306640625,-0.596923828125,-0.1337432861328125
1772456736471725800,4.101725830078125,-1.8677520751953125,-0.572418212890625,0.0335540771484375
1772456736481745700,4.11174560546875,-1.817138671875,-0.5203704833984375,0.1750030517578125
1772456736491764700,4.1217646484375,-1.8138885498046875,-0.4310150146484375,0.2264251708984375
1772456736501784800,4.131784912109375,-1.844207763671875,-0.281890869140625,0.1578826904296875
1772456736511804000,4.141803955078125,-1.8981781005859375,-0.11199951171875,0.06146240234375
1772456736521822700,4.15182275390625,-1.860595703125,0.0254974365234375,0.000396728515625
1772456736531842800,4.1618427734375,-1.7908935546875,0.013702392578125,0.041595458984375
1772456736541862000,4.17186181640625,-1.7082977294921875,-0.1353607177734375,0.122100830078125
1772456736551881700,4.1818818359375,-1.6102294921875,-0.315948486328125,0.1631317138671875
1772456736561900800,4.19190087890625,-1.43670654296875,-0.455596923828125,0.1846466064453125
1772456736571921000,4.2019208984375,-1.1709442138671875,-0.5373077392578125,0.2060699462890625
1772456736581939700,4.211939697265625,-0.8692474365234375,-0.56866455078125,0.2257080078125
1772456736591959800,4.221959716796875,-0.60601806640625,-0.58380126953125,0.2611541748046875
1772456736601979000,4.231978759765625,-0.4174652099609375,-0.5735626220703125,0.2945709228515625
1772456736611998700,4.241998779296875,-0.367950439453125,-0.529998779296875,0.2995758056640625
1772456736622017800,4.252017822265625,-0.4492950439453125,-0.4632110595703125,0.29339599609375
1772456736632038000,4.262037841796875,-0.5476837158203125,-0.406707763671875,0.294342041015625
1772456736642056700,4.272056640625,-0.678863525390625,-0.3910064697265625,0.3000640869140625
1772456736652076800,4.282076904296875,-0.7961578369140625,-0.366668701171875,0.2923431396484375
1772456736662096000,4.292095947265625,-0.862152099609375,-0.3188323974609375,0.237762451171875
1772456736672115700,4.30211572265625,-0.8524017333984375,-0.2657623291015625,0.1121978759765625
1772456736682134800,4.312134765625,-0.7606658935546875,-0.2146148681640625,-0.044677734375
1772456736692155000,4.32215478515625,-0.6059112548828125,-0.1698455810546875,-0.1753387451171875
1772456736702173700,4.332173583984375,-0.463592529296875,-0.150390625,-0.2550201416015625
1772456736712193800,4.34219384765625,-0.32830810546875,-0.1269073486328125,-0.28338623046875
1772456736722212900,4.352212890625,-0.2274017333984375,-0.1163787841796875,-0.2373809814453125
1772456736732232000,4.36223193359375,-0.1589813232421875,-0.097198486328125,-0.1406402587890625
1772456736742251800,4.372251708984375,-0.1048126220703125,-0.0765533447265625,-0.015594482421875
1772456736752270600,4.3822705078125,-0.0617828369140625,-0.06982421875,0.111724853515625
1772456736762290700,4.392290771484375,-0.0204925537109375,-0.0881195068359375,0.2533721923828125
1772456736772309800,4.402309814453125,-0.0346221923828125,-0.1260528564453125,0.3819580078125
1772456736782329900,4.412329833984375,-0.141693115234375,-0.183868408203125,0.441986083984375
1772456736792349000,4.422348876953125,-0.27215576171875,-0.21484375,0.3989715576171875
1772456736802368800,4.43236865234375,-0.3979034423828125,-0.2277374267578125,0.2841796875
1772456736812387600,4.4423876953125,-0.54229736328125,-0.2368621826171875,0.174896240234375
1772456736822407700,4.45240771484375,-0.6989288330078125,-0.252410888671875,0.064666748046875
1772456736832426800,4.4624267578125,-0.8504180908203125,-0.245330810546875,-0.0620574951171875
1772456736842446800,4.47244677734375,-0.989837646484375,-0.2336578369140625,-0.16143798828125
1772456736852466000,4.4824658203125,-1.16070556640625,-0.2967681884765625,-0.206329345703125
1772456736862485800,4.49248583984375,-1.3890838623046875,-0.439849853515625,-0.217742919921875
1772456736872504800,4.5025048828125,-1.6003875732421875,-0.5833587646484375,-0.184478759765625
1772456736882524700,4.512524658203125,-1.7476348876953125,-0.662567138671875,-0.120880126953125
1772456736892543700,4.522543701171875,-1.751373291015625,-0.6158599853515625,-0.0924835205078125
1772456736902563800,4.532563720703125,-1.6607513427734375,-0.4839324951171875,-0.048370361328125
1772456736912583000,4.5425830078125,-1.59246826171875,-0.357147216796875,-0.0654144287109375
1772456736922603000,4.55260302734375,-1.5488739013671875,-0.200897216796875,-0.1746368408203125
1772456736932621800,4.562621826171875,-1.481781005859375,-0.0354461669921875,-0.252044677734375
1772456736942641000,4.572640869140625,-1.3839874267578125,0.0364990234375,-0.2114105224609375
1772456736952660700,4.58266064453125,-1.308441162109375,-0.0418243408203125,-0.1087188720703125
1772456736962679800,4.5926796875,-1.312530517578125,-0.2166748046875,-0.01312255859375
1772456736972700000,4.602699951171875,-1.394805908203125,-0.3855133056640625,0.06097412109375
1772456736982718700,4.61271875,-1.455230712890625,-0.488922119140625,0.113922119140625
1772456736992738800,4.62273876953125,-1.466278076171875,-0.5298614501953125,0.1058502197265625
1772456737002758000,4.6327578125,-1.4305877685546875,-0.5369873046875,0.0291748046875
1772456737012777700,4.64277783203125,-1.3423004150390625,-0.54443359375,-0.05523681640625
1772456737022796800,4.652796875,-1.213165283203125,-0.556732177734375,-0.114501953125
1772456737032817000,4.66281689453125,-1.063262939453125,-0.5565032958984375,-0.1162261962890625
1772456737042835700,4.672835693359375,-0.9204559326171875,-0.536163330078125,-0.04949951171875
1772456737052855800,4.682855712890625,-0.792694091796875,-0.5008544921875,0.0460052490234375
1772456737062875000,4.692875,-0.6822052001953125,-0.45452880859375,0.135772705078125
1772456737072894700,4.702894775390625,-0.5940399169921875,-0.399932861328125,0.2021026611328125
1772456737082913800,4.712913818359375,-0.540679931640625,-0.3496551513671875,0.2465972900390625
1772456737092934000,4.722933837890625,-0.5269317626953125,-0.314605712890625,0.2386322021484375
1772456737102952700,4.73295263671875,-0.519561767578125,-0.2872161865234375,0.1811981201171875
1772456737112972800,4.742972900390625,-0.4903564453125,-0.255462646484375,0.1251220703125
1772456737122991900,4.752991943359375,-0.4389801025390625,-0.229034423828125,0.0738525390625
1772456737133011000,4.763010986328125,-0.3731231689453125,-0.2003173828125,0.037078857421875
1772456737143030800,4.77303076171875,-0.2980499267578125,-0.1655120849609375,0.0265960693359375
1772456737153049600,4.783049560546875,-0.2218780517578125,-0.1317138671875,0.050506591796875
1772456737163069700,4.793069580078125,-0.1605072021484375,-0.117584228515625,0.09356689453125
1772456737173088800,4.8030888671875,-0.12841796875,-0.1212921142578125,0.149993896484375
1772456737183108900,4.81310888671875,-0.125152587890625,-0.14935302734375,0.20831298828125
1772456737193128000,4.8231279296875,-0.15032958984375,-0.194244384765625,0.253143310546875
1772456737203147800,4.833147705078125,-0.2173614501953125,-0.246795654296875,0.2835845947265625
1772456737213166600,4.84316650390625,-0.313690185546875,-0.308258056640625,0.2834930419921875
1772456737223186700,4.853186767578125,-0.4241790771484375,-0.361724853515625,0.26922607421875
1772456737233205800,4.863205810546875,-0.61199951171875,-0.4073944091796875,0.2710113525390625
1772456737243225900,4.873225830078125,-0.8852691650390625,-0.4145965576171875,0.229400634765625
1772456737253245000,4.883244873046875,-1.16241455078125,-0.352508544921875,0.099517822265625
1772456737263264800,4.8932646484375,-1.38751220703125,-0.2585906982421875,-0.04425048828125
1772456737273283800,4.903283935546875,-1.581329345703125,-0.18231201171875,-0.1335906982421875
1772456737283303700,4.9133037109375,-1.7985382080078125,-0.200927734375,-0.1028900146484375
1772456737293322800,4.92332275390625,-2.0491790771484375,-0.32086181640625,0.0104217529296875
1772456737303342800,4.9333427734375,-2.2222137451171875,-0.4211273193359375,0.108123779296875
1772456737313362000,4.94336181640625,-2.2094879150390625,-0.401092529296875,0.07818603515625
1772456737323380700,4.953380615234375,-2.06768798828125,-0.2998199462890625,-0.0521087646484375
1772456737333400800,4.96340087890625,-1.8966217041015625,-0.2393035888671875,-0.1921234130859375
1772456737343420000,4.973419921875,-1.7434234619140625,-0.23626708984375,-0.281219482421875
1772456737353439700,4.983439697265625,-1.6141204833984375,-0.2145233154296875,-0.3376617431640625
1772456737363458800,4.993458740234375,-1.491058349609375,-0.1566925048828125,-0.3254241943359375
1772456737373479000,5.00347900390625,-1.3864898681640625,-0.1250762939453125,-0.2160491943359375
1772456737383497700,5.013497802734375,-1.33154296875,-0.181427001953125,-0.0511627197265625
1772456737393518000,5.02351806640625,-1.34393310546875,-0.311370849609375,0.091339111328125
1772456737403537000,5.033536865234375,-1.39324951171875,-0.451934814453125,0.1090240478515625
1772456737413556700,5.043556640625,-1.38653564453125,-0.5587615966796875,0.0039520263671875
1772456737423575800,5.053575927734375,-1.30889892578125,-0.648834228515625,-0.111846923828125
1772456737433596000,5.063595947265625,-1.164581298828125,-0.7286376953125,-0.1747894287109375
1772456737443615000,5.073614990234375,-0.9921875,-0.78265380859375,-0.1932220458984375
1772456737453635000,5.083635009765625,-0.849212646484375,-0.8120880126953125,-0.2001190185546875
1772456737463654000,5.09365380859375,-0.734222412109375,-0.798126220703125,-0.1692047119140625
1772456737473673700,5.103673828125,-0.6601715087890625,-0.7374267578125,-0.08807373046875
1772456737483692800,5.11369287109375,-0.621185302734375,-0.6597900390625,0.032684326171875
1772456737493712000,5.1237119140625,-0.582794189453125,-0.5803985595703125,0.1147003173828125
1772456737503732000,5.13373193359375,-0.536041259765625,-0.513397216796875,0.141021728515625
1772456737513750800,5.143750732421875,-0.4836883544921875,-0.458740234375,0.1341552734375
1772456737523771000,5.15377099609375,-0.423187255859375,-0.4122161865234375,0.11260986328125
1772456737533790000,5.1637900390625,-0.35992431640625,-0.3695220947265625,0.084686279296875
1772456737543809800,5.173809814453125,-0.30010986328125,-0.3243560791015625,0.0659942626953125
1772456737553828900,5.183828857421875,-0.2529144287109375,-0.2800750732421875,0.071624755859375
1772456737563849000,5.193848876953125,-0.2257537841796875,-0.2402496337890625,0.09600830078125
1772456737573867800,5.20386767578125,-0.216064453125,-0.20379638671875,0.1224212646484375
1772456737583888000,5.213887939453125,-0.2093505859375,-0.159423828125,0.1493072509765625
1772456737593907000,5.223906982421875,-0.200469970703125,-0.116546630859375,0.1649017333984375
1772456737603926800,5.2339267578125,-0.1995086669921875,-0.07281494140625,0.187774658203125
1772456737613945900,5.24394580078125,-0.21044921875,-0.05059814453125,0.2337799072265625
1772456737623966000,5.253966064453125,-0.2298126220703125,-0.04638671875,0.2829437255859375
1772456737633984800,5.26398486328125,-0.2566070556640625,-0.0543365478515625,0.3026275634765625
1772456737644004900,5.2740048828125,-0.315399169921875,-0.0901336669921875,0.292083740234375
1772456737654024000,5.28402392578125,-0.3954925537109375,-0.1165313720703125,0.260406494140625
1772456737664043800,5.294043701171875,-0.4799346923828125,-0.1414337158203125,0.2171783447265625
1772456737674062800,5.304062744140625,-0.611297607421875,-0.1628265380859375,0.1659393310546875
1772456737684082000,5.31408203125,-0.833892822265625,-0.19921875,0.0914306640625
1772456737694101800,5.324101806640625,-1.1763763427734375,-0.31878662109375,-0.006805419921875
1772456737704120800,5.334120849609375,-1.534515380859375,-0.3761444091796875,-0.1177978515625
1772456737714141000,5.344140869140625,-1.8414459228515625,-0.4655303955078125,-0.0958251953125
1772456737724160000,5.354159912109375,-2.0048828125,-0.634521484375,-0.0776214599609375
1772456737734180000,5.36418017578125,-2.0034942626953125,-0.75469970703125,-0.011810302734375
1772456737744199000,5.374198974609375,-1.9133148193359375,-0.7868804931640625,0.1042938232421875
1772456737754218800,5.38421875,-1.829559326171875,-0.71868896484375,0.1990966796875
1772456737764237800,5.39423779296875,-1.8409271240234375,-0.559967041015625,0.2463836669921875
1772456737774258000,5.4042578125,-1.898773193359375,-0.27935791015625,0.1324462890625
1772456737784277000,5.414277099609375,-1.914337158203125,0.0627899169921875,0.002288818359375
1772456737794297000,5.424297119140625,-1.894866943359375,0.28460693359375,0.000335693359375
1772456737804316000,5.43431591796875,-1.89642333984375,0.259368896484375,0.0258636474609375
1772456737814335700,5.444335693359375,-1.9015350341796875,0.07525634765625,-0.001007080078125
1772456737824354800,5.454354736328125,-1.825958251953125,-0.117889404296875,-0.0438385009765625
1772456737834374000,5.464373779296875,-1.645751953125,-0.295135498046875,-0.0523834228515625
1772456737844394000,5.47439404296875,-1.378631591796875,-0.4442138671875,-0.0483856201171875
1772456737854412800,5.484412841796875,-1.0736846923828125,-0.540283203125,-0.009368896484375
1772456737864433000,5.494432861328125,-0.8368988037109375,-0.602752685546875,0.1230926513671875
1772456737874452000,5.504451904296875,-0.680419921875,-0.5804443359375,0.23223876953125
1772456737884471800,5.514471923828125,-0.5963287353515625,-0.4993896484375,0.25323486328125
1772456737894491000,5.524490966796875,-0.555633544921875,-0.415802001953125,0.2274932861328125
1772456737904511000,5.534510986328125,-0.514617919921875,-0.35943603515625,0.2251129150390625
1772456737914529800,5.54452978515625,-0.4807281494140625,-0.310333251953125,0.256866455078125
1772456737924550000,5.5545498046875,-0.4587554931640625,-0.2625732421875,0.2808990478515625
1772456737934569000,5.56456884765625,-0.4620361328125,-0.2197723388671875,0.2887725830078125
1772456737944588800,5.5745888671875,-0.483123779296875,-0.1948394775390625,0.274261474609375
1772456737954607900,5.58460791015625,-0.4766082763671875,-0.165283203125,0.230133056640625
1772456737964628000,5.5946279296875,-0.4293060302734375,-0.132843017578125,0.171661376953125
1772456737974646800,5.604646728515625,-0.3641815185546875,-0.11474609375,0.12109375
1772456737984667000,5.6146669921875,-0.303253173828125,-0.1056671142578125,0.0921478271484375
1772456737994686000,5.62468603515625,-0.2449493408203125,-0.0967864990234375,0.080352783203125
1772456738004705000,5.634705078125,-0.1823272705078125,-0.08697509765625,0.0764007568359375
1772456738014724900,5.644724853515625,-0.12939453125,-0.0834197998046875,0.096405029296875
1772456738024743700,5.65474365234375,-0.0938568115234375,-0.0770721435546875,0.12969970703125
1772456738034763800,5.664763671875,-0.0531463623046875,-0.06231689453125,0.1645965576171875
1772456738044782800,5.674782958984375,-0.0308685302734375,-0.0550079345703125,0.1994781494140625
1772456738054803000,5.684802978515625,-0.068572998046875,-0.059906005859375,0.21466064453125
1772456738064822000,5.694822021484375,-0.16217041015625,-0.07818603515625,0.199737548828125
1772456738074841900,5.704841796875,-0.283782958984375,-0.111480712890625,0.1535491943359375
1772456738084861000,5.71486083984375,-0.4110565185546875,-0.1699676513671875,0.08203125
1772456738094880800,5.724880859375,-0.572509765625,-0.2203521728515625,-0.0047149658203125
1772456738104899800,5.73489990234375,-0.777069091796875,-0.211273193359375,-0.1165008544921875
1772456738114920000,5.744919921875,-1.088043212890625,-0.2061004638671875,-0.239501953125
1772456738124939000,5.75493896484375,-1.5299072265625,-0.2639007568359375,-0.32989501953125
1772456738134958800,5.764958740234375,-2.0205230712890625,-0.420623779296875,-0.353424072265625
1772456738144978000,5.77497802734375,-2.398895263671875,-0.598907470703125,-0.3506317138671875
1772456738154997000,5.7849970703125,-2.5370941162109375,-0.7150115966796875,-0.33447265625
1772456738165016800,5.795016845703125,-2.40814208984375,-0.668365478515625,-0.326873779296875
1772456738175036000,5.805035888671875,-2.109466552734375,-0.4876708984375,-0.3028106689453125
1772456738185056000,5.815055908203125,-1.8531951904296875,-0.3710479736328125,-0.20013427734375
1772456738195074800,5.82507470703125,-1.6846160888671875,-0.249114990234375,-0.1941375732421875
1772456738205095000,5.835094970703125,-1.58935546875,-0.069091796875,-0.27960205078125
1772456738215114000,5.845114013671875,-1.541259765625,0.069580078125,-0.252899169921875
1772456738225133800,5.8551337890625,-1.5145721435546875,0.060211181640625,-0.1165771484375
1772456738235153000,5.86515283203125,-1.507354736328125,-0.0806121826171875,-0.0069122314453125
1772456738245173000,5.875173095703125,-1.5386199951171875,-0.234619140625,0.0297088623046875
1772456738255191800,5.88519189453125,-1.5458221435546875,-0.3356781005859375,0.020263671875
1772456738265212000,5.8952119140625,-1.4627227783203125,-0.3976898193359375,0.0336761474609375
1772456738275231000,5.90523095703125,-1.2881927490234375,-0.421539306640625,0.077484130859375
1772456738285250000,5.91525,-1.0782012939453125,-0.4229278564453125,0.1434478759765625
1772456738295270000,5.925269775390625,-0.902313232421875,-0.421112060546875,0.2206878662109375
1772456738305288700,5.935288818359375,-0.779022216796875,-0.4083709716796875,0.28900146484375
1772456738315308800,5.945308837890625,-0.695892333984375,-0.377685546875,0.3408660888671875
1772456738325328000,5.955327880859375,-0.6379852294921875,-0.3491973876953125,0.3663330078125
1772456738335348000,5.965347900390625,-0.6004180908203125,-0.33709716796875,0.3751678466796875
1772456738345367000,5.975366943359375,-0.5680084228515625,-0.3321533203125,0.3582611083984375
1772456738355387000,5.985386962890625,-0.531646728515625,-0.3098602294921875,0.300567626953125
1772456738365405700,5.99540576171875,-0.49554443359375,-0.2751007080078125,0.22802734375
1772456738375425800,6.00542578125,-0.4806060791015625,-0.236907958984375,0.142791748046875
1772456738385444900,6.01544482421875,-0.4742584228515625,-0.204315185546875,0.0494537353515625
1772456738395465700,6.0254658203125,-0.447113037109375,-0.1690673828125,-0.026397705078125
1772456738405484800,6.03548486328125,-0.4032440185546875,-0.141357421875,-0.0691375732421875
1772456738415504600,6.045504638671875,-0.3548431396484375,-0.1179962158203125,-0.079193115234375
1772456738425523700,6.055523681640625,-0.309417724609375,-0.095458984375,-0.0528564453125
1772456738435542800,6.065542724609375,-0.263427734375,-0.0731658935546875,-0.0066986083984375
1772456738445563000,6.07556298828125,-0.22564697265625,-0.05609130859375,0.0556488037109375
1772456738455581700,6.085581787109375,-0.2028961181640625,-0.0448150634765625,0.1147308349609375
1772456738465601800,6.095601806640625,-0.2015380859375,-0.0424346923828125,0.1646575927734375
1772456738475620900,6.105620849609375,-0.2307586669921875,-0.0620269775390625,0.1920623779296875
1772456738485640700,6.115640625,-0.2991180419921875,-0.1088714599609375,0.2030487060546875
1772456738495659800,6.12565966796875,-0.420074462890625,-0.1685638427734375,0.1938934326171875
1772456738505680000,6.135679931640625,-0.59063720703125,-0.2148284912109375,0.1440277099609375
1772456738515698700,6.14569873046875,-0.78399658203125,-0.2358551025390625,0.0357818603515625
1772456738525718800,6.15571875,-0.981719970703125,-0.2475433349609375,-0.0922393798828125
1772456738535737900,6.16573779296875,-1.2295684814453125,-0.3050994873046875,-0.1514892578125
1772456738545757700,6.1757578125,-1.5637664794921875,-0.4390869140625,-0.08544921875
1772456738555776800,6.18577685546875,-1.851531982421875,-0.56927490234375,0.0000457763671875
1772456738565796900,6.195796875,-1.9567108154296875,-0.59124755859375,0.0694427490234375
1772456738575815700,6.205815673828125,-1.8929901123046875,-0.5019073486328125,0.1198577880859375
1772456738585834800,6.215834716796875,-1.76806640625,-0.38470458984375,0.1443939208984375
1772456738595854800,6.225854736328125,-1.71563720703125,-0.292236328125,0.1382598876953125
1772456738605874000,6.2358740234375,-1.763671875,-0.2295684814453125,0.052459716796875
1772456738615893800,6.245893798828125,-1.8287506103515625,-0.1612396240234375,-0.115142822265625
1772456738625912600,6.25591259765625,-1.814300537109375,-0.1056060791015625,-0.2082977294921875
1772456738635932700,6.2659326171875,-1.6934814453125,-0.1050872802734375,-0.1465301513671875
1772456738645951700,6.27595166015625,-1.5582427978515625,-0.18341064453125,-0.0069732666015625
1772456738655971800,6.285971923828125,-1.4807586669921875,-0.287322998046875,0.134521484375
1772456738665991000,6.295990966796875,-1.4423065185546875,-0.3629913330078125,0.253753662109375
1772456738676010800,6.3060107421875,-1.3943634033203125,-0.4083099365234375,0.3140716552734375
1772456738686029600,6.316029541015625,-1.3124847412109375,-0.4464874267578125,0.279632568359375
1772456738696049700,6.326049560546875,-1.1929473876953125,-0.489990234375,0.2139129638671875
1772456738706068700,6.33606884765625,-1.060638427734375,-0.5380706787109375,0.165191650390625
1772456738716087800,6.346087890625,-0.9266510009765625,-0.5766143798828125,0.1234283447265625
1772456738726108000,6.35610791015625,-0.7736358642578125,-0.5939178466796875,0.0923919677734375
1772456738736126700,6.366126708984375,-0.614654541015625,-0.5865631103515625,0.0941009521484375
1772456738746146600,6.376146484375,-0.5235443115234375,-0.55419921875,0.097381591796875
1772456738756165600,6.38616552734375,-0.5161895751953125,-0.496490478515625,0.081939697265625
1772456738766185700,6.396185791015625,-0.5204925537109375,-0.4169921875,0.0654144287109375
1772456738776204800,6.406204833984375,-0.5125274658203125,-0.3442230224609375,0.07568359375
1772456738786225000,6.416224853515625,-0.4882354736328125,-0.283294677734375,0.106048583984375
1772456738796243700,6.42624365234375,-0.4498748779296875,-0.2224578857421875,0.1324310302734375
1772456738806263800,6.436263916015625,-0.39678955078125,-0.1664276123046875,0.1459808349609375
1772456738816282600,6.44628271484375,-0.340850830078125,-0.11669921875,0.1319122314453125
1772456738826302700,6.456302734375,-0.30328369140625,-0.0858001708984375,0.0862274169921875
1772456738836321800,6.46632177734375,-0.27349853515625,-0.0589599609375,0.0415802001953125
1772456738846340600,6.476340576171875,-0.2205810546875,-0.029266357421875,0.0331573486328125
1772456738856360700,6.486360595703125,-0.1626434326171875,-0.00262451171875,0.0625152587890625
1772456738866379800,6.4963798828125,-0.1050567626953125,-0.0037384033203125,0.106231689453125
1772456738876399900,6.50639990234375,-0.062164306640625,-0.0174407958984375,0.1557159423828125
1772456738886419000,6.5164189453125,-0.0556488037109375,-0.0510711669921875,0.214111328125
1772456738896438800,6.526438720703125,-0.09820556640625,-0.1215057373046875,0.26251220703125
1772456738906457600,6.53645751953125,-0.1978607177734375,-0.2062225341796875,0.2791900634765625
1772456738916477700,6.546477783203125,-0.344329833984375,-0.27294921875,0.26177978515625
1772456738926496800,6.556496826171875,-0.568267822265625,-0.2988433837890625,0.1976165771484375
1772456738936516900,6.566516845703125,-0.877532958984375,-0.2659149169921875,0.063568115234375
1772456738946536000,6.576535888671875,-1.1814117431640625,-0.19598388671875,-0.0895233154296875
1772456738956555800,6.5865556640625,-1.472412109375,-0.1727142333984375,-0.1640472412109375
1772456738966574600,6.59657470703125,-1.7054443359375,-0.246917724609375,-0.190185546875
1772456738976593700,6.60659375,-1.90240478515625,-0.4118194580078125,-0.2227325439453125
1772456738986613800,6.61661376953125,-2.0763397216796875,-0.655731201171875,-0.194488525390625
1772456738996632800,6.6266328125,-2.0554351806640625,-0.78314208984375,-0.1070556640625
1772456739006653000,6.63665283203125,-1.8280029296875,-0.7392425537109375,-0.01116943359375
1772456739016671700,6.646671630859375,-1.630828857421875,-0.5996551513671875,0.0201873779296875
1772456739026691600,6.656691650390625,-1.5732879638671875,-0.3908843994140625,0.011260986328125
1772456739036710700,6.666710693359375,-1.62420654296875,-0.0967559814453125,-0.023345947265625
1772456739046730800,6.676730712890625,-1.7051544189453125,0.185211181640625,-0.0447845458984375
1772456739056749800,6.686749755859375,-1.74615478515625,0.30963134765625,-0.0016937255859375
1772456739066770000,6.69677001953125,-1.7988739013671875,0.1974029541015625,0.0323028564453125
1772456739076788700,6.706788818359375,-1.8670806884765625,-0.040740966796875,0.033447265625
1772456739086808600,6.71680859375,-1.8546142578125,-0.2483978271484375,0.0313873291015625
1772456739096827600,6.72682763671875,-1.69268798828125,-0.3885650634765625,0.0019989013671875
1772456739106846700,6.7368466796875,-1.3962249755859375,-0.4597320556640625,-0.030609130859375
1772456739116866800,6.74686669921875,-1.045806884765625,-0.4920196533203125,-0.004608154296875
1772456739126885600,6.7568857421875,-0.7374725341796875,-0.5192108154296875,0.0811614990234375
1772456739136905700,6.76690576171875,-0.532684326171875,-0.5514678955078125,0.222991943359375
1772456739146924800,6.7769248046875,-0.43414306640625,-0.5430450439453125,0.3751678466796875
1772456739156944600,6.786944580078125,-0.390869140625,-0.4684906005859375,0.452911376953125
1772456739166963700,6.796963623046875,-0.3581390380859375,-0.3838653564453125,0.4742431640625
1772456739176983800,6.80698388671875,-0.3400421142578125,-0.325225830078125,0.462738037109375
1772456739187002600,6.817002685546875,-0.3445281982421875,-0.2907562255859375,0.433746337890625
1772456739197022700,6.827022705078125,-0.404266357421875,-0.264190673828125,0.3659515380859375
1772456739207041800,6.837041748046875,-0.4759521484375,-0.228546142578125,0.25616455078125
1772456739217061600,6.8470615234375,-0.509857177734375,-0.159454345703125,0.1423492431640625
1772456739227080700,6.857080810546875,-0.5059051513671875,-0.0987396240234375,0.0550384521484375
1772456739237099500,6.867099609375,-0.4621734619140625,-0.05133056640625,-0.0126800537109375
1772456739247119600,6.87711962890625,-0.39752197265625,-0.0225067138671875,-0.022216796875
1772456739257138700,6.887138671875,-0.353759765625,0.0013885498046875,-0.00213623046875
1772456739267158800,6.89715869140625,-0.2939605712890625,0.0244598388671875,-0.0055999755859375
1772456739277177900,6.907177734375,-0.251220703125,0.0253753662109375,-0.008941650390625
1772456739287198000,6.917197998046875,-0.2375640869140625,-0.0088043212890625,0.024200439453125
1772456739297216800,6.927216796875,-0.2519989013671875,-0.0666656494140625,0.097686767578125
1772456739307236600,6.937236572265625,-0.2995452880859375,-0.1434478759765625,0.19219970703125
1772456739317255700,6.947255615234375,-0.3886566162109375,-0.2376708984375,0.2919921875
1772456739327275800,6.95727587890625,-0.4587860107421875,-0.321929931640625,0.3731842041015625
1772456739337294800,6.967294921875,-0.50103759765625,-0.3619232177734375,0.401092529296875
1772456739347313700,6.977313720703125,-0.61505126953125,-0.34912109375,0.3226470947265625
1772456739357333800,6.987333740234375,-0.8579254150390625,-0.3485107421875,0.1631622314453125
1772456739367352800,6.997352783203125,-1.184356689453125,-0.373748779296875,0.017608642578125
1772456739377372700,7.00737255859375,-1.5571136474609375,-0.39410400390625,-0.0499114990234375
1772456739387391700,7.017391845703125,-1.92633056640625,-0.4533538818359375,-0.0609893798828125
1772456739397411300,7.027411376953125,-2.2195892333984375,-0.5145111083984375,-0.109222412109375
1772456739407430100,7.03743017578125,-2.380340576171875,-0.5293426513671875,-0.1805267333984375
1772456739417450200,7.0474501953125,-2.405487060546875,-0.463226318359375,-0.256011962890625
1772456739427469300,7.05746923828125,-2.3399810791015625,-0.2993927001953125,-0.387176513671875
1772456739437489200,7.0674892578125,-2.2064666748046875,-0.09918212890625,-0.5603790283203125
1772456739447508200,7.07750830078125,-1.9881134033203125,0.06890869140625,-0.6822052001953125
1772456739457528300,7.0875283203125,-1.7238616943359375,0.1605377197265625,-0.640106201171875
1772456739467547100,7.097547119140625,-1.488616943359375,0.115234375,-0.4074554443359375
1772456739477566200,7.107566162109375,-1.3730316162109375,-0.0816497802734375,-0.1211090087890625
1772456739487586300,7.11758642578125,-1.391937255859375,-0.3257598876953125,0.0524749755859375
1772456739497605400,7.12760546875,-1.4319305419921875,-0.4846038818359375,0.0872802734375
1772456739507625200,7.137625244140625,-1.42877197265625,-0.52740478515625,0.026214599609375
1772456739517644300,7.147644287109375,-1.35357666015625,-0.5031280517578125,-0.027191162109375
1772456739527664000,7.1576640625,-1.241485595703125,-0.469207763671875,-0.0242919921875
1772456739537683200,7.16768310546875,-1.106903076171875,-0.4517822265625,0.020751953125
1772456739547703300,7.177703369140625,-0.98358154296875,-0.4410247802734375,0.088348388671875
1772456739557722400,7.187722412109375,-0.8850860595703125,-0.42974853515625,0.1554412841796875
1772456739567742500,7.197742431640625,-0.8115386962890625,-0.4080047607421875,0.2081146240234375
1772456739577761300,7.20776123046875,-0.7577362060546875,-0.382537841796875,0.2458648681640625
1772456739587780400,7.2177802734375,-0.7175750732421875,-0.3613128662109375,0.2503204345703125
1772456739597800200,7.22780029296875,-0.676239013671875,-0.3542327880859375,0.2079315185546875
1772456739607819300,7.2378193359375,-0.61651611328125,-0.349578857421875,0.134063720703125
1772456739617839400,7.24783935546875,-0.5361328125,-0.341827392578125,0.052154541015625
1772456739627858200,7.257858154296875,-0.4504547119140625,-0.329620361328125,-0.009857177734375
1772456739637878300,7.267878173828125,-0.3512725830078125,-0.2962646484375,-0.04974365234375
1772456739647897300,7.2778974609375,-0.2432098388671875,-0.2468719482421875,-0.064727783203125
1772456739657917200,7.287917236328125,-0.1429290771484375,-0.209381103515625,-0.0497589111328125
1772456739667936300,7.297936279296875,-0.0697021484375,-0.1842041015625,-0.0105743408203125
1772456739677956400,7.307956298828125,-0.0279541015625,-0.174407958984375,0.053070068359375
1772456739687975200,7.31797509765625,-0.0197601318359375,-0.171051025390625,0.121856689453125
1772456739697994200,7.327994140625,-0.0374755859375,-0.1642303466796875,0.175628662109375
1772456739708014300,7.338014404296875,-0.0900421142578125,-0.1681976318359375,0.208709716796875
1772456739718033400,7.348033447265625,-0.180938720703125,-0.1867523193359375,0.210296630859375
1772456739728053200,7.35805322265625,-0.2726287841796875,-0.2080535888671875,0.1756134033203125
1772456739738072000,7.368072021484375,-0.3695068359375,-0.223541259765625,0.122528076171875
1772456739748092200,7.378092041015625,-0.46112060546875,-0.2298583984375,0.0767059326171875
1772456739758111200,7.388111328125,-0.5499114990234375,-0.229766845703125,0.042022705078125
1772456739768131300,7.39813134765625,-0.6107635498046875,-0.2359771728515625,-0.0052032470703125
1772456739778150400,7.408150390625,-0.6464385986328125,-0.2438812255859375,-0.0750579833984375
1772456739788170200,7.418170166015625,-0.685150146484375,-0.2352294921875,-0.1483001708984375
1772456739798189000,7.42818896484375,-0.7888946533203125,-0.2268218994140625,-0.1660003662109375
1772456739808208100,7.4382080078125,-1.00018310546875,-0.2632904052734375,-0.114105224609375
1772456739818228200,7.448228271484375,-1.3089752197265625,-0.364959716796875,-0.0212249755859375
1772456739828247300,7.458247314453125,-1.6633758544921875,-0.465423583984375,0.01751708984375
1772456739838267400,7.468267333984375,-1.9495391845703125,-0.5020599365234375,-0.0656890869140625
1772456739848286200,7.4782861328125,-2.0704345703125,-0.487823486328125,-0.2177276611328125
1772456739858306000,7.48830615234375,-2.00128173828125,-0.4278717041015625,-0.3338470458984375
1772456739868325000,7.4983251953125,-1.877685546875,-0.373809814453125,-0.3720703125
1772456739878345200,7.50834521484375,-1.7878570556640625,-0.3025665283203125,-0.3727264404296875
1772456739888364300,7.5183642578125,-1.702728271484375,-0.1830902099609375,-0.34222412109375
1772456739898384400,7.52838427734375,-1.6002655029296875,-0.0863494873046875,-0.2362518310546875
1772456739908403200,7.5384033203125,-1.5306243896484375,-0.0988616943359375,-0.1062774658203125
1772456739918422300,7.54842236328125,-1.5356597900390625,-0.219451904296875,-0.0102996826171875
1772456739928442000,7.558442138671875,-1.587432861328125,-0.3599853515625,0.0366363525390625
1772456739938461200,7.568461181640625,-1.5814361572265625,-0.44403076171875,0.062469482421875
1772456739948481300,7.578481201171875,-1.4942626953125,-0.4512786865234375,0.049591064453125
1772456739958500000,7.5885,-1.359344482421875,-0.429840087890625,0.0170745849609375
1772456739968520200,7.598520263671875,-1.20440673828125,-0.4128570556640625,0.01898193359375
1772456739978539300,7.608539306640625,-1.0552215576171875,-0.4024810791015625,0.0694732666015625
1772456739988559400,7.618559326171875,-0.940826416015625,-0.3899688720703125,0.159454345703125
1772456739998578400,7.628578369140625,-0.859222412109375,-0.3701629638671875,0.2313995361328125
1772456740008598300,7.638598388671875,-0.786407470703125,-0.35260009765625,0.2677764892578125
1772456740018617000,7.6486171875,-0.7163238525390625,-0.34942626953125,0.2810211181640625
1772456740028636200,7.65863623046875,-0.6620025634765625,-0.362274169921875,0.2891082763671875
1772456740038656300,7.66865625,-0.631866455078125,-0.3897857666015625,0.28961181640625
1772456740048675300,7.67867529296875,-0.5930023193359375,-0.4042510986328125,0.2635650634765625
1772456740058695400,7.6886953125,-0.5252227783203125,-0.3824310302734375,0.207427978515625
1772456740068714200,7.69871435546875,-0.4342193603515625,-0.3342742919921875,0.1389312744140625
1772456740078734000,7.708734130859375,-0.3480072021484375,-0.276123046875,0.0829925537109375
1772456740088753200,7.718753173828125,-0.2956085205078125,-0.238189697265625,0.035552978515625
1772456740098773200,7.728773193359375,-0.2661285400390625,-0.2021331787109375,-0.009765625
1772456740108792300,7.738792236328125,-0.250152587890625,-0.164337158203125,-0.02587890625
1772456740118812400,7.7488125,-0.2528533935546875,-0.1531829833984375,0.0047760009765625
1772456740128831200,7.758831298828125,-0.250701904296875,-0.1570587158203125,0.0391082763671875
1772456740138850300,7.768850341796875,-0.239990234375,-0.181610107421875,0.065673828125
1772456740148870100,7.7788701171875,-0.243408203125,-0.2145233154296875,0.083709716796875
1772456740158889200,7.78888916015625,-0.2719573974609375,-0.243438720703125,0.10552978515625
1772456740168909300,7.798909423828125,-0.3096923828125,-0.2548370361328125,0.1242523193359375
1772456740178928000,7.80892822265625,-0.347900390625,-0.249969482421875,0.1279449462890625
1772456740188948200,7.8189482421875,-0.3790435791015625,-0.2331390380859375,0.112213134765625
1772456740198967300,7.82896728515625,-0.4075469970703125,-0.2230224609375,0.073150634765625
1772456740208987100,7.838987060546875,-0.463470458984375,-0.230133056640625,0.013031005859375
1772456740219006200,7.849006103515625,-0.5381317138671875,-0.2407989501953125,-0.0644683837890625
1772456740229026300,7.8590263671875,-0.602569580078125,-0.2204742431640625,-0.1723480224609375
1772456740239045000,7.869045166015625,-0.7028961181640625,-0.191314697265625,-0.2622833251953125
1772456740249064200,7.879064208984375,-0.9515838623046875,-0.23687744140625,-0.2248687744140625
1772456740259084300,7.889084228515625,-1.3685760498046875,-0.39569091796875,-0.0701904296875
1772456740269103400,7.899103271484375,-1.7898101806640625,-0.5626068115234375,0.053253173828125
1772456740279123200,7.909123291015625,-2.072296142578125,-0.599395751953125,0.04132080078125
1772456740289142000,7.91914208984375,-2.2124786376953125,-0.4988861083984375,-0.005218505859375
1772456740299162000,7.929162109375,-2.3059234619140625,-0.436248779296875,0.0035400390625
1772456740309181200,7.93918115234375,-2.354705810546875,-0.442047119140625,0.009796142578125
1772456740319201300,7.949201171875,-2.280303955078125,-0.378662109375,-0.0188446044921875
1772456740329220400,7.959220458984375,-2.058319091796875,-0.2398834228515625,0.0102081298828125
1772456740339240200,7.969240234375,-1.8056182861328125,-0.1949615478515625,0.1617584228515625
1772456740349259300,7.97925927734375,-1.6277313232421875,-0.3138275146484375,0.3253631591796875
1772456740359278000,7.989278076171875,-1.5567779541015625,-0.4993743896484375,0.3426055908203125
1772456740369298200,7.999298095703125,-1.5060272216796875,-0.62744140625,0.2405853271484375
1772456740379317200,8.009317138671875,-1.39501953125,-0.685455322265625,0.101409912109375
1772456740389337300,8.01933740234375,-1.279998779296875,-0.7213897705078125,-0.036773681640625
1772456740399356000,8.02935595703125,-1.1780853271484375,-0.7535858154296875,-0.1115570068359375
1772456740409375700,8.039375732421876,-1.0981597900390625,-0.758209228515625,-0.1420745849609375
1772456740419394800,8.049394775390626,-1.027984619140625,-0.7372894287109375,-0.139251708984375
1772456740429414700,8.05941455078125,-0.9734344482421875,-0.6951751708984375,-0.09490966796875
1772456740439433700,8.069433837890625,-0.90374755859375,-0.640625,-0.046875
1772456740449452800,8.079452880859375,-0.788848876953125,-0.5832977294921875,-0.00164794921875
1772456740459473000,8.089472900390625,-0.655670166015625,-0.53497314453125,0.0644073486328125
1772456740469491700,8.09949169921875,-0.5514068603515625,-0.5015869140625,0.12237548828125
1772456740479511800,8.10951171875,-0.4709625244140625,-0.46417236328125,0.1483154296875
1772456740489531000,8.11953076171875,-0.4069061279296875,-0.4094085693359375,0.155548095703125
1772456740499550700,8.12955078125,-0.3736724853515625,-0.337890625,0.1468658447265625
1772456740509569800,8.13956982421875,-0.369232177734375,-0.2527008056640625,0.122161865234375
1772456740519589600,8.149589599609374,-0.386474609375,-0.16522216796875,0.090301513671875
1772456740529608700,8.159608642578124,-0.411376953125,-0.0817718505859375,0.0704193115234375
1772456740539628800,8.16962890625,-0.4083404541015625,-0.016845703125,0.0787353515625
1772456740549648000,8.17964794921875,-0.3805084228515625,0.01898193359375,0.1007080078125
1772456740559667000,8.1896669921875,-0.33477783203125,0.026641845703125,0.134796142578125
1772456740569686800,8.199686767578125,-0.2826995849609375,0.0098876953125,0.17510986328125
1772456740579704800,8.209704833984375,-0.2354583740234375,-0.0206451416015625,0.2130584716796875
1772456740589724700,8.219724609375,-0.20330810546875,-0.0481414794921875,0.2447357177734375
1772456740599743700,8.22974365234375,-0.1816864013671875,-0.0820770263671875,0.2657623291015625
1772456740609762600,8.239762451171876,-0.1659088134765625,-0.129425048828125,0.2666168212890625
1772456740619782700,8.24978271484375,-0.1976318359375,-0.1872406005859375,0.279815673828125
1772456740629801700,8.2598017578125,-0.2983245849609375,-0.2646331787109375,0.3057403564453125
1772456740639821800,8.26982177734375,-0.4545745849609375,-0.2940521240234375,0.2753143310546875
1772456740649841000,8.2798408203125,-0.6869659423828125,-0.2874755859375,0.1726837158203125
1772456740659860700,8.28986083984375,-0.9876251220703125,-0.3019866943359375,0.0112457275390625
1772456740669879600,8.299879638671875,-1.2741546630859375,-0.3275604248046875,-0.1396636962890625
1772456740679899600,8.309899658203125,-1.52935791015625,-0.386505126953125,-0.22821044921875
1772456740689918700,8.319918701171876,-1.831939697265625,-0.5168914794921875,-0.222808837890625
1772456740699937800,8.329937744140626,-2.119903564453125,-0.6641387939453125,-0.1454315185546875
1772456740709958000,8.3399580078125,-2.227935791015625,-0.6840667724609375,-0.0581817626953125
1772456740719976700,8.349976806640624,-2.1271514892578125,-0.5475311279296875,0.0291595458984375
1772456740729996800,8.359996826171875,-1.9569854736328125,-0.3829498291015625,0.0838165283203125
1772456740740015900,8.370015869140625,-1.860595703125,-0.269317626953125,0.0765838623046875
1772456740750035700,8.38003564453125,-1.7965240478515625,-0.0946044921875,-0.0258026123046875
1772456740760054800,8.3900546875,-1.6832275390625,0.1493988037109375,-0.068389892578125
1772456740770075000,8.400074951171876,-1.5393524169921875,0.3109283447265625,0.036773681640625
1772456740780093700,8.41009375,-1.4587249755859375,0.3133392333984375,0.177490234375
1772456740790113800,8.42011376953125,-1.4636077880859375,0.202545166015625,0.25274658203125
1772456740800132900,8.4301328125,-1.4863739013671875,0.0602569580078125,0.2283477783203125
1772456740810152000,8.44015185546875,-1.3968505859375,-0.0717926025390625,0.1184234619140625
1772456740820171800,8.450171875,-1.2537078857421875,-0.1983184814453125,-0.0549468994140625
1772456740830190800,8.46019091796875,-1.1338043212890625,-0.337188720703125,-0.2346343994140625
1772456740840210700,8.470210693359375,-0.9871063232421875,-0.454559326171875,-0.3573150634765625
1772456740850229800,8.480229736328125,-0.78173828125,-0.5219879150390625,-0.3948211669921875
1772456740860249900,8.490249755859375,-0.5573883056640625,-0.5390472412109375,-0.3627166748046875
1772456740870269000,8.50026904296875,-0.3625030517578125,-0.5442047119140625,-0.2647705078125
1772456740880288800,8.510288818359374,-0.245361328125,-0.5496978759765625,-0.1213836669921875
1772456740890307600,8.5203076171875,-0.2030181884765625,-0.537750244140625,0.0051727294921875
1772456740900326700,8.53032666015625,-0.1991424560546875,-0.5096282958984375,0.0843353271484375
1772456740910346800,8.5403466796875,-0.22979736328125,-0.4810791015625,0.130584716796875
1772456740920365800,8.55036572265625,-0.272918701171875,-0.455230712890625,0.1355133056640625
1772456740930386000,8.560385986328125,-0.3147430419921875,-0.4210357666015625,0.102569580078125
1772456740940405000,8.570405029296875,-0.3665313720703125,-0.3841094970703125,0.0607147216796875
1772456740950424600,8.580424560546875,-0.3948516845703125,-0.348663330078125,0.0212249755859375
1772456740960444700,8.590444580078126,-0.3966522216796875,-0.3060760498046875,-0.000518798828125
1772456740970463700,8.600463623046876,-0.38616943359375,-0.258087158203125,-0.0111846923828125
1772456740980482800,8.61048291015625,-0.3492584228515625,-0.206756591796875,0.0172576904296875
1772456740990503000,8.6205029296875,-0.3003997802734375,-0.1588287353515625,0.08990478515625
1772456741000522000,8.63052197265625,-0.263519287109375,-0.1234283447265625,0.1853485107421875
1772456741010541600,8.64054150390625,-0.247711181640625,-0.1137542724609375,0.2764739990234375
1772456741020560600,8.650560546875,-0.264739990234375,-0.1357574462890625,0.33343505859375
1772456741030580700,8.660580810546875,-0.342864990234375,-0.183258056640625,0.34539794921875
1772456741040599800,8.670599853515625,-0.4649810791015625,-0.2356719970703125,0.3053131103515625
1772456741050620000,8.680619873046876,-0.6365966796875,-0.270660400390625,0.2254638671875
1772456741060638700,8.690638671875,-0.869171142578125,-0.286102294921875,0.1015625
1772456741070658600,8.700658447265624,-1.0878143310546875,-0.258056640625,-0.06439208984375
1772456741080677600,8.710677734375,-1.255889892578125,-0.1990814208984375,-0.2271575927734375
1772456741090696700,8.72069677734375,-1.4603118896484375,-0.17120361328125,-0.322235107421875
1772456741100716800,8.730716796875,-1.687652587890625,-0.2369232177734375,-0.28662109375
1772456741110736000,8.74073583984375,-1.84283447265625,-0.3689117431640625,-0.17315673828125
1772456741120755700,8.750755615234375,-1.877685546875,-0.45867919921875,-0.0327606201171875
1772456741130774800,8.76077490234375,-1.8545684814453125,-0.4525909423828125,0.0814056396484375
1772456741140795000,8.770794921875,-1.8672332763671875,-0.36285400390625,0.1116943359375
1772456741150813700,8.780813720703126,-1.951324462890625,-0.2541046142578125,0.0445556640625
1772456741160833800,8.790833740234374,-2.0355224609375,-0.135101318359375,-0.11541748046875
1772456741170852600,8.8008525390625,-2.0277099609375,0.0135498046875,-0.2715606689453125
1772456741180871700,8.81087158203125,-1.91412353515625,0.163116455078125,-0.278289794921875
1772456741190891800,8.820891845703125,-1.7695159912109375,0.2136077880859375,-0.115264892578125
1772456741200910800,8.830910888671875,-1.665374755859375,0.123931884765625,0.0711822509765625
1772456741210931000,8.840930908203125,-1.6332855224609375,-0.060943603515625,0.1969757080078125
1772456741220950000,8.850949951171875,-1.638641357421875,-0.269622802734375,0.238006591796875
1772456741230969600,8.860969482421876,-1.582000732421875,-0.414337158203125,0.199554443359375
1772456741240988700,8.87098876953125,-1.436187744140625,-0.5023651123046875,0.130706787109375
1772456741251008800,8.8810087890625,-1.2571868896484375,-0.5621795654296875,0.07098388671875
1772456741261027800,8.89102783203125,-1.06512451171875,-0.6113739013671875,0.0206451416015625
1772456741271047000,8.901046875,-0.8741912841796875,-0.6380157470703125,0.0099029541015625
1772456741281067000,8.91106689453125,-0.7029571533203125,-0.64404296875,0.0499114990234375
1772456741291085800,8.9210859375,-0.579132080078125,-0.6238250732421875,0.1124420166015625
1772456741301105700,8.931105712890625,-0.4984893798828125,-0.5822296142578125,0.1696624755859375
1772456741311124700,8.941124755859375,-0.4552001953125,-0.5283355712890625,0.2193145751953125
1772456741321144800,8.951144775390626,-0.442962646484375,-0.4801177978515625,0.2561798095703125
1772456741331164000,8.961163818359376,-0.440185546875,-0.436676025390625,0.2670745849609375
1772456741341183700,8.971183837890624,-0.4495391845703125,-0.3884735107421875,0.245147705078125
1772456741351202800,8.981202880859374,-0.47052001953125,-0.3358917236328125,0.1945037841796875
1772456741361222000,8.991221923828125,-0.487518310546875,-0.281280517578125,0.128570556640625
1772456741371241700,9.00124169921875,-0.490875244140625,-0.2236328125,0.0613861083984375
1772456741381260800,9.0112607421875,-0.4732208251953125,-0.17364501953125,0.0054168701171875
1772456741391281000,9.021281005859375,-0.425872802734375,-0.1343536376953125,-0.0140533447265625
1772456741401300500,9.031300537109376,-0.3681488037109375,-0.1063079833984375,0.0024566650390625
1772456741411320300,9.0413203125,-0.30584716796875,-0.0908355712890625,0.0375823974609375
1772456741421339400,9.05133935546875,-0.244415283203125,-0.083709716796875,0.085357666015625
1772456741431359500,9.061359375,-0.19525146484375,-0.085968017578125,0.1454010009765625
1772456741441378600,9.071378662109375,-0.1692352294921875,-0.099334716796875,0.1995086669921875
1772456741451398400,9.0813984375,-0.1690673828125,-0.1259613037109375,0.2272796630859375
1772456741461417500,9.09141748046875,-0.19500732421875,-0.1526947021484375,0.230712890625
1772456741471436500,9.1014365234375,-0.241241455078125,-0.178741455078125,0.19488525390625
1772456741481456600,9.11145654296875,-0.3172607421875,-0.1990814208984375,0.1204681396484375
1772456741491475500,9.121475341796875,-0.4110260009765625,-0.20806884765625,0.027496337890625
1772456741501495600,9.13149560546875,-0.514404296875,-0.19781494140625,-0.078399658203125
1772456741511514400,9.141514404296874,-0.5911712646484375,-0.14080810546875,-0.2012939453125
1772456741521534500,9.151534423828124,-0.6745758056640625,-0.0735015869140625,-0.2584228515625
1772456741531553500,9.161553466796875,-0.8646392822265625,-0.0784149169921875,-0.18682861328125
1772456741541573600,9.17157373046875,-1.2171173095703125,-0.188385009765625,-0.0623016357421875
1772456741551592700,9.1815927734375,-1.6533660888671875,-0.3078460693359375,0.0282745361328125
1772456741561611500,9.191611572265625,-2.0217132568359375,-0.296539306640625,-0.0239105224609375
1772456741571631400,9.20163134765625,-2.184539794921875,-0.1630401611328125,-0.151031494140625
1772456741581650400,9.211650390625,-2.1457061767578125,-0.0483245849609375,-0.216766357421875
1772456741591670500,9.22167041015625,-2.0107421875,-0.013885498046875,-0.1941986083984375
1772456741601689600,9.231689697265624,-1.882049560546875,0.00433349609375,-0.1506805419921875
1772456741611709700,9.241709716796874,-1.7597808837890625,0.056610107421875,-0.127471923828125
1772456741621728500,9.251728515625,-1.6207122802734375,0.084869384765625,-0.07763671875
1772456741631748400,9.261748291015625,-1.5105133056640625,0.00634765625,-0.0064849853515625
1772456741641767400,9.271767333984375,-1.4887542724609375,-0.159271240234375,0.018463134765625
1772456741651786500,9.281786376953125,-1.5328521728515625,-0.330963134765625,0.0229949951171875
1772456741661806600,9.291806640625,-1.55938720703125,-0.454193115234375,0.047271728515625
1772456741671825400,9.301825439453125,-1.531158447265625,-0.5088348388671875,0.0405120849609375
1772456741681845500,9.311845458984376,-1.4622650146484375,-0.5204010009765625,-0.012054443359375
1772456741691864600,9.321864501953126,-1.3618927001953125,-0.525909423828125,-0.063995361328125
1772456741701884400,9.331884521484374,-1.24005126953125,-0.53265380859375,-0.0697174072265625
1772456741711903500,9.341903564453125,-1.115966796875,-0.5491790771484375,-0.0223846435546875
1772456741721923600,9.351923583984375,-1.0056304931640625,-0.5589447021484375,0.057464599609375
1772456741731942400,9.3619423828125,-0.89239501953125,-0.5552520751953125,0.1584320068359375
1772456741741961500,9.37196142578125,-0.787628173828125,-0.548736572265625,0.2639617919921875
1772456741751981600,9.381981689453125,-0.696929931640625,-0.5440826416015625,0.3385772705078125
1772456741762000600,9.392000732421875,-0.6199493408203125,-0.5375823974609375,0.3806304931640625
1772456741772020500,9.4020205078125,-0.5590362548828125,-0.5252685546875,0.394866943359375
1772456741782039300,9.412039306640626,-0.519622802734375,-0.503936767578125,0.385498046875
1772456741792059400,9.422059326171874,-0.4919891357421875,-0.465667724609375,0.3364410400390625
1772456741802078500,9.432078369140624,-0.4637603759765625,-0.4133758544921875,0.2610321044921875
1772456741812098600,9.4420986328125,-0.4375152587890625,-0.348297119140625,0.1797943115234375
1772456741822117600,9.45211767578125,-0.4075775146484375,-0.2877197265625,0.1145172119140625
1772456741832136400,9.462136474609375,-0.375701904296875,-0.2512969970703125,0.0821075439453125
1772456741842156300,9.47215625,-0.3472900390625,-0.22381591796875,0.0710296630859375
1772456741852175400,9.48217529296875,-0.3413848876953125,-0.204742431640625,0.0676116943359375
1772456741862195500,9.492195556640626,-0.3447113037109375,-0.198577880859375,0.0894317626953125
1772456741872214500,9.502214599609376,-0.3571014404296875,-0.2132415771484375,0.1429595947265625
1772456741882234600,9.512234619140624,-0.382476806640625,-0.2445068359375,0.210601806640625
1772456741892253400,9.52225341796875,-0.4184417724609375,-0.280670166015625,0.2486724853515625
1772456741902273500,9.5322734375,-0.4654083251953125,-0.3172454833984375,0.238800048828125
1772456741912292600,9.542292724609375,-0.529815673828125,-0.3460845947265625,0.18817138671875
1772456741922311400,9.5523115234375,-0.6161041259765625,-0.3672027587890625,0.1161956787109375
1772456741932331500,9.56233154296875,-0.73419189453125,-0.397186279296875,0.022369384765625
1772456741942350300,9.572350341796875,-0.8946075439453125,-0.405364990234375,-0.10870361328125
1772456741952370400,9.582370361328126,-1.0793609619140625,-0.3532867431640625,-0.2303009033203125
1772456741962389500,9.592389404296876,-1.32196044921875,-0.29833984375,-0.227874755859375
1772456741972409600,9.60240966796875,-1.6291961669921875,-0.316741943359375,-0.1145782470703125
1772456741982428700,9.6124287109375,-1.9366302490234375,-0.4029693603515625,-0.0094757080078125
1772456741992448500,9.622448486328125,-2.1518707275390625,-0.455322265625,-0.006134033203125
1772456742002467300,9.63246728515625,-2.187103271484375,-0.395965576171875,-0.1267242431640625
1772456742012486400,9.642486328125,-2.0936737060546875,-0.2731781005859375,-0.252288818359375
1772456742022506500,9.652506591796875,-1.989044189453125,-0.180908203125,-0.28851318359375
1772456742032525600,9.662525634765625,-1.887908935546875,-0.115203857421875,-0.282257080078125
1772456742042545700,9.672545654296876,-1.77276611328125,-0.038909912109375,-0.3175048828125
1772456742052564500,9.682564453125,-1.6443939208984375,0.02008056640625,-0.3450775146484375
1772456742062584300,9.692584228515624,-1.517425537109375,-0.012908935546875,-0.3162841796875
1772456742072603400,9.702603271484374,-1.428741455078125,-0.155120849609375,-0.24517822265625
1772456742082623500,9.71262353515625,-1.3740997314453125,-0.3282012939453125,-0.1612548828125
1772456742092642600,9.722642578125,-1.30712890625,-0.472259521484375,-0.0865325927734375
1772456742102661400,9.732661376953125,-1.2211456298828125,-0.557830810546875,-0.065032958984375
1772456742112681500,9.742681396484375,-1.1215667724609375,-0.5950775146484375,-0.1036834716796875
1772456742122700500,9.752700439453125,-1.011199951171875,-0.6136016845703125,-0.1364593505859375
1772456742132720400,9.762720458984376,-0.931365966796875,-0.626495361328125,-0.128570556640625
1772456742142739500,9.772739501953126,-0.905487060546875,-0.6087188720703125,-0.0728759765625
1772456742152759600,9.782759521484374,-0.9080047607421875,-0.548583984375,0.029205322265625
1772456742162778400,9.7927783203125,-0.9118194580078125,-0.4593658447265625,0.116119384765625
1772456742172798500,9.802798583984375,-0.9036712646484375,-0.3762359619140625,0.180572509765625
1772456742182817500,9.812817626953125,-0.8754425048828125,-0.3248138427734375,0.2364501953125
1772456742192836600,9.822836669921875,-0.82647705078125,-0.306549072265625,0.28021240234375
1772456742202856400,9.8328564453125,-0.7482147216796875,-0.3029327392578125,0.2913360595703125
1772456742212875500,9.84287548828125,-0.6485443115234375,-0.2918701171875,0.2655792236328125
1772456742222895400,9.852895263671876,-0.5375518798828125,-0.260589599609375,0.208465576171875
1772456742232914400,9.86291455078125,-0.42474365234375,-0.218658447265625,0.1392974853515625
1772456742242934500,9.8729345703125,-0.3232879638671875,-0.1752471923828125,0.074798583984375
1772456742252953600,9.88295361328125,-0.246246337890625,-0.1445770263671875,0.0342864990234375
1772456742262972700,9.89297265625,-0.192596435546875,-0.1309814453125,0.029571533203125
1772456742272992300,9.9029921875,-0.1598968505859375,-0.12579345703125,0.0609893798828125
1772456742283011300,9.91301123046875,-0.145263671875,-0.128936767578125,0.1199493408203125
1772456742293031400,9.923031494140625,-0.139801025390625,-0.1348114013671875,0.1807098388671875
1772456742303050500,9.933050537109375,-0.13739013671875,-0.1337890625,0.2252197265625
1772456742313070600,9.943070556640626,-0.14349365234375,-0.1305084228515625,0.2454376220703125
1772456742323089700,9.953089599609376,-0.1580352783203125,-0.1262054443359375,0.25323486328125
1772456742333109500,9.963109619140624,-0.1785736083984375,-0.1233367919921875,0.249053955078125
1772456742343128300,9.97312841796875,-0.222320556640625,-0.13494873046875,0.222747802734375
1772456742353147400,9.9831474609375,-0.2963409423828125,-0.137298583984375,0.1743011474609375
1772456742363167500,9.99316748046875,-0.3922576904296875,-0.1015625,0.1049652099609375
1772456742373186600,10.0031865234375,-0.4865875244140625,-0.0840606689453125,0.027862548828125
1772456742383206700,10.01320654296875,-0.6195068359375,-0.1399078369140625,-0.0145721435546875
1772456742393225500,10.0232255859375,-0.7970123291015625,-0.1630096435546875,0.02020263671875
1772456742403245000,10.0332451171875,-0.998992919921875,-0.2027435302734375,0.121368408203125
1772456742413264000,10.043263916015626,-1.244049072265625,-0.2865447998046875,0.1694183349609375
1772456742423283700,10.05328369140625,-1.4796600341796875,-0.3371734619140625,0.158233642578125
1772456742433302800,10.063302734375,-1.6485748291015625,-0.3420562744140625,0.103363037109375
1772456742443321900,10.07332177734375,-1.74005126953125,-0.332366943359375,0.0558013916015625
1772456742453342000,10.083342041015625,-1.76885986328125,-0.325225830078125,0.0474090576171875
1772456742463360800,10.09336083984375,-1.7460479736328125,-0.26910400390625,0.0223541259765625
1772456742473380900,10.103380859375,-1.663177490234375,-0.1492462158203125,-0.0198516845703125
1772456742483400000,10.11339990234375,-1.5487213134765625,-0.0258941650390625,0.02557373046875
1772456742493419800,10.123419677734375,-1.448028564453125,-0.001983642578125,0.1228790283203125
1772456742503438800,10.13343896484375,-1.3791961669921875,-0.0888519287109375,0.157440185546875
1772456742513459000,10.143458984375,-1.351318359375,-0.2351531982421875,0.1253509521484375
1772456742523477800,10.153477783203124,-1.3825836181640625,-0.395111083984375,0.0681915283203125
1772456742533496800,10.163496826171874,-1.470062255859375,-0.56134033203125,0.01849365234375
1772456742543517000,10.173516845703125,-1.5295562744140625,-0.696197509765625,-0.0357666015625
1772456742553536000,10.183535888671875,-1.4954833984375,-0.7484283447265625,-0.126678466796875
1772456742563555800,10.193555908203125,-1.3839569091796875,-0.762359619140625,-0.1982879638671875
1772456742573574700,10.20357470703125,-1.2405853271484375,-0.7652740478515625,-0.2129364013671875
1772456742583594800,10.2135947265625,-1.0916290283203125,-0.748626708984375,-0.1613006591796875
1772456742593613800,10.22361376953125,-0.95318603515625,-0.7084197998046875,-0.075164794921875
1772456742603633000,10.2336328125,-0.8581085205078125,-0.649810791015625,0.0096588134765625
1772456742613653000,10.243653076171874,-0.8175811767578125,-0.5880279541015625,0.072509765625
1772456742623671800,10.253671875,-0.816314697265625,-0.5384674072265625,0.1031341552734375
1772456742633692000,10.26369189453125,-0.8305206298828125,-0.504974365234375,0.102508544921875
1772456742643711000,10.2737109375,-0.8243865966796875,-0.467132568359375,0.0702972412109375
1772456742653730800,10.283730712890625,-0.8060760498046875,-0.4224395751953125,0.0308990478515625
1772456742663750000,10.29375,-0.77886962890625,-0.3888092041015625,-0.0032958984375
1772456742673770000,10.30377001953125,-0.73675537109375,-0.3492889404296875,-0.026641845703125
1772456742683788800,10.313788818359376,-0.6959228515625,-0.3125457763671875,-0.05267333984375
1772456742693807900,10.323807861328126,-0.654571533203125,-0.28546142578125,-0.05859375
1772456742703828000,10.333827880859374,-0.61431884765625,-0.2657318115234375,-0.042816162109375
1772456742713847000,10.343846923828124,-0.570770263671875,-0.2591094970703125,-0.0175018310546875
1772456742723867000,10.353866943359375,-0.5302581787109375,-0.2650604248046875,0.0106964111328125
1772456742733885700,10.3638857421875,-0.5048828125,-0.2791900634765625,0.03570556640625
1772456742743905800,10.37390576171875,-0.50994873046875,-0.299041748046875,0.0560150146484375
1772456742753924900,10.3839248046875,-0.531036376953125,-0.3144683837890625,0.0741729736328125
1772456742763944000,10.39394384765625,-0.565216064453125,-0.3178863525390625,0.0895538330078125
1772456742773964000,10.403964111328126,-0.61468505859375,-0.3010711669921875,0.099700927734375
1772456742783982800,10.41398291015625,-0.6754913330078125,-0.2673797607421875,0.10284423828125
1772456742794002700,10.424002685546874,-0.734771728515625,-0.228118896484375,0.103851318359375
1772456742804021800,10.434021728515624,-0.8044586181640625,-0.188385009765625,0.09686279296875
1772456742814041900,10.444041748046875,-0.8781280517578125,-0.1571044921875,0.09527587890625
1772456742824061000,10.45406103515625,-0.93487548828125,-0.1277313232421875,0.091705322265625
1772456742834081000,10.4640810546875,-0.9643707275390625,-0.105377197265625,0.087799072265625
1772456742844099800,10.474099853515625,-0.9881439208984375,-0.0981903076171875,0.1020355224609375
1772456742854119000,10.484118896484375,-1.014739990234375,-0.10223388671875,0.115631103515625
1772456742864138800,10.494138671875,-1.052093505859375,-0.104736328125,0.0929718017578125
1772456742874157800,10.50415771484375,-1.096099853515625,-0.1111297607421875,0.0446319580078125
1772456742884178000,10.514177978515624,-1.145904541015625,-0.1326141357421875,-0.007904052734375
1772456742894196700,10.52419677734375,-1.1746673583984375,-0.1777496337890625,-0.055450439453125
1772456742904216800,10.534216796875,-1.17315673828125,-0.2426300048828125,-0.0773468017578125
1772456742914236000,10.54423583984375,-1.15814208984375,-0.305419921875,-0.083343505859375
1772456742924255000,10.5542548828125,-1.13580322265625,-0.3512725830078125,-0.0937957763671875
1772456742934274800,10.56427490234375,-1.1090240478515625,-0.3684234619140625,-0.0966033935546875
1772456742944294000,10.5742939453125,-1.07867431640625,-0.36883544921875,-0.0826873779296875
1772456742954313700,10.584313720703125,-1.060699462890625,-0.362762451171875,-0.0604400634765625
1772456742964332800,10.594332763671876,-1.0579681396484375,-0.3554840087890625,-0.0377044677734375
1772456742974353000,10.604352783203124,-1.053436279296875,-0.3515625,-0.0428314208984375
1772456742984372000,10.6143720703125,-1.040985107421875,-0.3624725341796875,-0.070526123046875
1772456742994391800,10.624391845703125,-1.0348358154296875,-0.3787384033203125,-0.0692901611328125
1772456743004411000,10.634410888671875,-1.0326690673828125,-0.36798095703125,-0.04736328125
1772456743014429700,10.6444296875,-1.0184783935546875,-0.332916259765625,-0.037841796875
1772456743024449800,10.65444970703125,-0.994140625,-0.3033447265625,-0.02484130859375
1772456743034468900,10.66446875,-0.9893341064453125,-0.2931060791015625,0.0019683837890625
1772456743044489000,10.674489013671876,-0.99127197265625,-0.290863037109375,0.027069091796875
1772456743054508000,10.684508056640626,-0.9856719970703125,-0.291473388671875,0.0301513671875
1772456743064528000,10.69452783203125,-0.978759765625,-0.2932586669921875,0.0324859619140625
1772456743074546700,10.704546630859374,-0.9684906005859375,-0.292877197265625,0.0435791015625
1772456743084565800,10.714565673828124,-0.95745849609375,-0.2945556640625,0.056671142578125
1772456743094585900,10.7245859375,-0.9611663818359375,-0.3001251220703125,0.062957763671875
1772456743104605000,10.73460498046875,-0.9733123779296875,-0.2988433837890625,0.0560150146484375
1772456743114625000,10.744625,-0.9828948974609375,-0.2891387939453125,0.0312957763671875
1772456743124643800,10.754643798828125,-0.9938812255859375,-0.276031494140625,0.0204620361328125
1772456743134664000,10.764663818359375,-0.9993133544921875,-0.26953125,0.0369415283203125
1772456743144683000,10.77468310546875,-0.9840545654296875,-0.2594757080078125,0.05633544921875
1772456743154702800,10.784702880859374,-0.9644317626953125,-0.2479248046875,0.066375732421875
1772456743164722000,10.794721923828124,-0.952850341796875,-0.24346923828125,0.0663299560546875
1772456743174740700,10.80474072265625,-0.9457244873046875,-0.2479400634765625,0.052581787109375
1772456743184760800,10.8147607421875,-0.9515838623046875,-0.241729736328125,0.0200958251953125
1772456743194780000,10.82477978515625,-0.9654541015625,-0.22418212890625,-0.0016937255859375
1772456743204800000,10.834800048828125,-0.9631500244140625,-0.2474517822265625,0.022857666015625
1772456743214819000,10.844819091796875,-0.9605255126953125,-0.2832794189453125,0.059478759765625
1772456743224839000,10.8548388671875,-0.9693756103515625,-0.3006591796875,0.0735321044921875
1772456743234857700,10.864857666015626,-0.984283447265625,-0.27276611328125,0.025909423828125
1772456743244876800,10.874876708984376,-0.9925537109375,-0.24066162109375,-0.0077667236328125
1772456743254897000,10.88489697265625,-0.9890594482421875,-0.2215728759765625,0.0112152099609375
1772456743264916000,10.894916015625,-0.963653564453125,-0.2373199462890625,0.0565032958984375
