time,seconds_elapsed,z,y,x
1772456732452654600,0.082654541015625,0.24519269168376923,0.3207673728466034,1.0230958461761475
1772456732462673400,0.09267333984375,0.3716701865196228,0.3908122479915619,1.1087900400161743
1772456732472693500,0.102693603515625,0.4988113343715668,0.3511544167995453,1.1573238372802734
1772456732482712600,0.112712646484375,0.5859057903289795,0.3040556013584137,1.1856921911239624
1772456732492732400,0.122732421875,0.6281592845916748,0.17650553584098816,1.1765083074569702
1772456732502751500,0.13275146484375,0.617163360118866,0.016824539750814438,1.1498165130615234
1772456732512771600,0.142771484375,0.54752516746521,-0.10521333664655685,1.1399699449539185
1772456732522790400,0.152790283203125,0.4336707592010498,-0.14760154485702515,1.1535307168960571
1772456732532810500,0.162810546875,0.2923460900783539,-0.14634539186954498,1.1460827589035034
1772456732542829600,0.17282958984375,0.11338086426258087,-0.23154284060001373,1.0586748123168945
1772456732552849400,0.182849365234375,-0.13004453480243683,-0.4141950309276581,0.8476650714874268
1772456732562868500,0.192868408203125,-0.39171102643013,-0.5197973847389221,0.5827000141143799
1772456732572888300,0.202888427734375,-0.6555150151252747,-0.5168843269348145,0.2776009440422058
1772456732582907400,0.212907470703125,-0.9086149334907532,-0.09937842190265656,-0.13349206745624542
1772456732592927500,0.222927490234375,-1.0679471492767334,0.4632752537727356,-0.6128826141357422
1772456732602947600,0.232947509765625,-1.2181246280670166,1.2591687440872192,-1.0239224433898926
1772456732612966700,0.242966552734375,-1.5196783542633057,2.041184902191162,-1.3107426166534424
1772456732622986500,0.252986572265625,-1.9547462463378906,2.462324857711792,-1.4575430154800415
1772456732633005300,0.26300537109375,-2.3214290142059326,2.8132388591766357,-1.3591012954711914
1772456732643025400,0.273025390625,-2.4916880130767822,2.6174190044403076,-1.0794007778167725
1772456732653044500,0.28304443359375,-2.4874138832092285,1.6599318981170654,-0.7170052528381348
1772456732663064600,0.293064697265625,-2.420302391052246,0.5114039182662964,-0.2474803924560547
1772456732673083600,0.303083740234375,-2.361210823059082,-0.2909756600856781,0.2967225909233093
1772456732683103500,0.313103515625,-2.1946942806243896,-0.7426478266716003,0.7409186959266663
1772456732693122300,0.323122314453125,-1.8077445030212402,-1.051329493522644,0.9091921448707581
1772456732703142400,0.333142333984375,-1.1912277936935425,-1.2435522079467773,0.8145758509635925
1772456732713161500,0.343161376953125,-0.3311711549758911,-1.3987796306610107,0.5845037698745728
1772456732723181600,0.353181640625,0.6835057139396667,-1.490667462348938,0.33044886589050293
1772456732733200600,0.36320068359375,1.6624890565872192,-1.4770324230194092,0.14392802119255066
1772456732743220500,0.373220458984375,2.3837597370147705,-1.4727360010147095,0.033909644931554794
1772456732753239300,0.3832392578125,2.685014247894287,-1.6314539909362793,-0.015121144242584705
1772456732763259400,0.39325927734375,2.6034984588623047,-1.8165652751922607,-0.056908007711172104
1772456732773278500,0.403278564453125,2.263848304748535,-1.7805620431900024,-0.15543705224990845
1772456732783298600,0.413298583984375,1.744794487953186,-1.510337471961975,-0.33119288086891174
1772456732793317600,0.423317626953125,1.1709092855453491,-1.2325751781463623,-0.5377967357635498
1772456732803337500,0.43333740234375,0.674655020236969,-1.0491361618041992,-0.7047562003135681
1772456732813356300,0.443356201171875,0.3167136013507843,-0.7227039933204651,-0.8343168497085571
1772456732823376400,0.45337646484375,0.08511607348918915,-0.3590579032897949,-0.8699249625205994
1772456732833395500,0.4633955078125,-0.08198824524879456,0.040843281894922256,-0.8402850031852722
1772456732843415600,0.47341552734375,-0.17720982432365417,0.41861802339553833,-0.762982189655304
1772456732853434600,0.4834345703125,-0.2209988683462143,0.7701019048690796,-0.6423114538192749
1772456732863454500,0.493454345703125,-0.26282644271850586,1.0860612392425537,-0.4808546304702759
1772456732873473300,0.503473388671875,-0.39138782024383545,1.4517565965652466,-0.3203568756580353
1772456732883493400,0.513493408203125,-0.5351905226707458,1.7250351905822754,-0.1839098036289215
1772456732893512400,0.523512451171875,-0.5474171042442322,1.6993927955627441,-0.08088961988687515
1772456732903532500,0.533532470703125,-0.4224837124347687,1.5023113489151,-0.015577457845211029
1772456732913552600,0.543552734375,-0.2622939646244049,1.231444001197815,0.05882576107978821
1772456732923571700,0.55357177734375,-0.15267986059188843,1.0124051570892334,0.17346766591072083
1772456732933591600,0.563591552734375,-0.1069609671831131,0.9455488920211792,0.31925293803215027
1772456732943610400,0.5736103515625,-0.0810295045375824,0.9699676632881165,0.45114704966545105
1772456732953630500,0.58363037109375,-0.06870861351490021,0.9638652205467224,0.5300623178482056
1772456732963649500,0.5936494140625,-0.03138202056288719,0.9187592267990112,0.5495648980140686
1772456732973669600,0.603669677734375,0.08947210758924484,1.0022263526916504,0.570414662361145
1772456732983688700,0.613688720703125,0.325312077999115,1.2305101156234741,0.634375274181366
1772456732993708300,0.623708251953125,0.649121880531311,1.44112229347229,0.7259878516197205
1772456733003727400,0.633727294921875,0.9667695760726929,1.3546377420425415,0.8098840713500977
1772456733013747500,0.64374755859375,1.216029405593872,0.8752765655517578,0.9762037992477417
1772456733023766500,0.6537666015625,1.3016396760940552,0.4498128890991211,1.2695475816726685
1772456733033786600,0.66378662109375,1.207168459892273,0.2836233675479889,1.6204986572265625
1772456733043805700,0.6738056640625,0.9446241855621338,0.23898930847644806,1.8776509761810303
1772456733053825300,0.6838251953125,0.48144978284835815,0.39929699897766113,1.80582857131958
1772456733063844400,0.69384423828125,0.09529460966587067,0.25564128160476685,1.570631504058838
1772456733073864400,0.703864501953125,-0.14752726256847382,-0.1242847815155983,1.0093129873275757
1772456733083883500,0.713883544921875,-0.3443545699119568,-0.29342958331108093,0.5145821571350098
1772456733093903600,0.723903564453125,-0.5624401569366455,-0.31085577607154846,0.13002952933311462
1772456733103922700,0.733922607421875,-0.8177608847618103,-0.23688459396362305,-0.1644071638584137
1772456733113942300,0.7439423828125,-1.0285338163375854,-0.1333768665790558,-0.43903085589408875
1772456733123961300,0.75396142578125,-1.060089111328125,0.04660622030496597,-0.7404778003692627
1772456733133981400,0.7639814453125,-0.8714383244514465,0.29475346207618713,-1.0503993034362793
1772456733144000500,0.77400048828125,-0.5005675554275513,0.5048084855079651,-1.303410291671753
1772456733154020600,0.7840205078125,-0.060784779489040375,0.49376970529556274,-1.451783537864685
1772456733164039400,0.794039306640625,0.3297315835952759,0.1567077785730362,-1.5027122497558594
1772456733174059300,0.804059326171875,0.6731722950935364,-0.4309486150741577,-1.4398493766784668
1772456733184078300,0.814078369140625,0.9428673982620239,-1.0234992504119873,-1.275161623954773
1772456733194098400,0.824098388671875,1.08651602268219,-1.357399821281433,-1.0606942176818848
1772456733204117500,0.834117431640625,1.0834823846817017,-1.3848814964294434,-0.8692644238471985
1772456733214137600,0.8441376953125,1.000473976135254,-1.164748191833496,-0.7448404431343079
1772456733224156400,0.854156494140625,0.9259331822395325,-0.7925685048103333,-0.710834801197052
1772456733234176500,0.864176513671875,0.928089439868927,-0.3841904103755951,-0.72808438539505
1772456733244195600,0.874195556640625,1.0175793170928955,-0.012800874188542366,-0.7483856678009033
1772456733254215400,0.88421533203125,1.17274010181427,0.23444782197475433,-0.7132434844970703
1772456733264234500,0.894234375,1.3597207069396973,0.32373136281967163,-0.5965184569358826
1772456733274254600,0.904254638671875,1.4727169275283813,0.2994312047958374,-0.3851912319660187
1772456733284274700,0.914274658203125,1.4841488599777222,0.23824985325336456,-0.09158653020858765
1772456733294293500,0.92429345703125,1.3631861209869385,0.2718370854854584,0.24260742962360382
1772456733304313300,0.934313232421875,1.1197786331176758,0.39104336500167847,0.5267560482025146
1772456733314332400,0.94433251953125,0.8174775242805481,0.5058144330978394,0.7265163660049438
1772456733324352500,0.9543525390625,0.5531710386276245,0.5245356559753418,0.8371232748031616
1772456733334371600,0.96437158203125,0.43091776967048645,0.38904517889022827,0.8644151091575623
1772456733344391700,0.9743916015625,0.514310359954834,0.12602579593658447,0.8388186693191528
1772456733354410500,0.984410400390625,0.7585921287536621,-0.1806185394525528,0.7854058146476746
1772456733364430300,0.994430419921875,1.041383147239685,-0.4309876561164856,0.7589552998542786
1772456733374449400,1.004449462890625,1.184382677078247,-0.5479164719581604,0.7816191911697388
1772456733384469500,1.014469482421875,1.1168675422668457,-0.5085871815681458,0.8394800424575806
1772456733394488300,1.02448828125,0.8979681730270386,-0.3161802291870117,0.906913697719574
1772456733404508400,1.03450830078125,0.6629215478897095,-0.03307795524597168,0.9526087641716003
1772456733414527200,1.04452734375,0.5208278298377991,0.1654312163591385,0.9936437606811523
1772456733424547000,1.054547119140625,0.5021212697029114,0.13320429623126984,1.0258607864379883
1772456733434566100,1.064566162109375,0.45176565647125244,-0.19849008321762085,1.0224815607070923
1772456733444586200,1.074586181640625,0.23384423553943634,-0.727258563041687,0.9644363522529602
1772456733454605300,1.084605224609375,-0.14089253544807434,-0.9244334101676941,0.9316555261611938
1772456733464625400,1.09462548828125,-0.5201067328453064,-0.473505437374115,0.9789197444915771
1772456733474644200,1.104644287109375,-0.7761341333389282,0.4277225136756897,1.0391039848327637
1772456733484664300,1.114664306640625,-0.9144014716148376,1.2896336317062378,1.0119389295578003
1772456733494683400,1.124683349609375,-0.996920108795166,1.7739183902740479,0.842458963394165
1772456733504703200,1.134703125,-1.0717213153839111,1.9125601053237915,0.585960328578949
1772456733514722300,1.144722412109375,-1.1408294439315796,1.8826535940170288,0.31918612122535706
1772456733524742400,1.154742431640625,-1.141245722770691,1.7197043895721436,0.0452568493783474
1772456733534761200,1.16476123046875,-1.0581307411193848,1.3889199495315552,-0.217489093542099
1772456733544781300,1.17478125,-0.9487779140472412,0.9528736472129822,-0.4839690029621124
1772456733554800400,1.18480029296875,-0.8530424237251282,0.5015470385551453,-0.7546905279159546
1772456733564820200,1.1948203125,-0.7517091631889343,0.12340106070041656,-1.0132269859313965
1772456733574839300,1.20483935546875,-0.6792956590652466,-0.1551799774169922,-1.2538063526153564
1772456733584859400,1.214859375,-0.670437216758728,-0.36664748191833496,-1.444460391998291
1772456733594878200,1.224878173828125,-0.7016378045082092,-0.5196871161460876,-1.5229769945144653
1772456733604898300,1.234898193359375,-0.6755926012992859,-0.6887350082397461,-1.472571611404419
1772456733614917400,1.24491748046875,-0.5584378838539124,-0.9734976887702942,-1.3657697439193726
1772456733624937200,1.254937255859375,-0.41113126277923584,-1.3552815914154053,-1.2168591022491455
1772456733634956300,1.264956298828125,-0.20286935567855835,-1.6203203201293945,-1.0027278661727905
1772456733644976400,1.274976318359375,0.09343821555376053,-1.6751554012298584,-0.6906793117523193
1772456733654995200,1.2849951171875,0.36559632420539856,-1.5567582845687866,-0.2889489233493805
1772456733665015300,1.295015380859375,0.5246375799179077,-1.3449288606643677,0.12380483001470566
1772456733675034400,1.305034423828125,0.5712287425994873,-1.0593255758285522,0.5080243945121765
1772456733685054200,1.31505419921875,0.5461074113845825,-0.7335571646690369,0.8164491057395935
1772456733695073300,1.3250732421875,0.4637470543384552,-0.42588314414024353,1.0238572359085083
1772456733705093400,1.33509326171875,0.3522911071777344,-0.19859646260738373,1.0963037014007568
1772456733715112200,1.3451123046875,0.2574990689754486,-0.039268381893634796,1.0481736660003662
1772456733725132300,1.35513232421875,0.19224627315998077,0.05356728285551071,0.9286874532699585
1772456733735151400,1.3651513671875,0.16323216259479523,0.1705179512500763,0.7831109762191772
1772456733745171200,1.375171142578125,0.1431223750114441,0.35845324397087097,0.6335843205451965
1772456733755190300,1.385190185546875,0.1366235911846161,0.5983633399009705,0.4851590096950531
1772456733765210400,1.39521044921875,0.15922370553016663,0.8114729523658752,0.33908089995384216
1772456733775229200,1.405229248046875,0.224641814827919,0.9408040046691895,0.21650239825248718
1772456733785249300,1.415249267578125,0.31547877192497253,0.9759582281112671,0.14018313586711884
1772456733795268400,1.425268310546875,0.4044853150844574,0.901486337184906,0.12292061001062393
1772456733805288200,1.4352880859375,0.4851439297199249,0.7544974088668823,0.16920900344848633
1772456733815307300,1.445307373046875,0.5394401550292969,0.6091423630714417,0.275350958108902
1772456733825327400,1.455327392578125,0.5406343340873718,0.47720348834991455,0.4312755763530731
1772456733835346200,1.46534619140625,0.43763643503189087,0.3036837577819824,0.6009185910224915
1772456733845366300,1.4753662109375,0.2303151935338974,0.027046583592891693,0.7446672320365906
1772456733855385300,1.48538525390625,0.025531064718961716,-0.21932703256607056,0.8394672870635986
1772456733865405400,1.495405517578125,-0.0717393010854721,-0.3467387557029724,0.8671524524688721
1772456733875424500,1.505424560546875,0.012305805459618568,-0.34488555788993835,0.821052610874176
1772456733885444000,1.515444091796875,0.22823090851306915,-0.2748817205429077,0.8184195756912231
1772456733895463200,1.525463134765625,0.34781700372695923,-0.2277754694223404,0.9319005012512207
1772456733905483300,1.535483154296875,0.0857185497879982,-0.20151829719543457,1.0367594957351685
1772456733915502300,1.54550244140625,-0.5282170176506042,-0.24545904994010925,0.9437661170959473
1772456733925522400,1.5555224609375,-1.076430082321167,-0.2859058082103729,0.6899120211601257
1772456733935541500,1.56554150390625,-1.2824417352676392,-0.37550869584083557,0.4141284227371216
1772456733945561000,1.57556103515625,-1.2246394157409668,-0.48566821217536926,0.22403091192245483
1772456733955580200,1.585580078125,-1.10861074924469,-0.7400428652763367,0.03457494080066681
1772456733965600300,1.595600341796875,-0.9951073527336121,-1.0256954431533813,-0.23319871723651886
1772456733975619300,1.605619384765625,-0.8037711381912231,-1.1428179740905762,-0.5659864544868469
1772456733985639400,1.615639404296875,-0.5141587853431702,-1.014785647392273,-0.9276610612869263
1772456733995658500,1.625658447265625,-0.16480016708374023,-0.6822956800460815,-1.2686302661895752
1772456734005678000,1.635677978515625,0.16968992352485657,-0.35401690006256104,-1.4817582368850708
1772456734015697200,1.645697265625,0.40735769271850586,-0.09840723872184753,-1.4841817617416382
1772456734025717200,1.65571728515625,0.4775298535823822,-0.0048229568637907505,-1.3734943866729736
1772456734035736300,1.665736328125,0.3884734511375427,-0.1985052078962326,-1.2638970613479614
1772456734045756400,1.67575634765625,0.20658086240291595,-0.59919673204422,-1.1779468059539795
1772456734055775200,1.685775146484375,0.03128468990325928,-0.913257360458374,-1.0825356245040894
1772456734065795000,1.695795166015625,-0.09559363126754761,-1.0489368438720703,-0.9690412878990173
1772456734075814100,1.705814208984375,-0.19768266379833221,-0.9621995091438293,-0.815403163433075
1772456734085834200,1.715834228515625,-0.3211183249950409,-0.6243873834609985,-0.628753662109375
1772456734095853300,1.725853271484375,-0.4528518319129944,-0.15815898776054382,-0.430980384349823
1772456734105873400,1.735873291015625,-0.5441634058952332,0.3019747734069824,-0.24320195615291595
1772456734115892200,1.745892333984375,-0.5684160590171814,0.7079802751541138,-0.07091856002807617
1772456734125912000,1.755912109375,-0.5367995500564575,1.0091490745544434,0.07899423688650131
1772456734135931100,1.76593115234375,-0.5100927948951721,1.1590713262557983,0.21318475902080536
1772456734145951200,1.775951171875,-0.5264307260513306,1.1592841148376465,0.31348392367362976
1772456734155970300,1.78597021484375,-0.5766885280609131,1.035796046257019,0.35300514101982117
1772456734165990400,1.795990478515625,-0.6008442044258118,0.8567191362380981,0.32820260524749756
1772456734176009200,1.80600927734375,-0.5380366444587708,0.6796466708183289,0.24942946434020996
1772456734186029300,1.816029296875,-0.371318519115448,0.5164284706115723,0.13866166770458221
1772456734196048400,1.82604833984375,-0.11838816106319427,0.34268122911453247,0.03852120414376259
1772456734206068200,1.836068115234375,0.18853290379047394,0.14526109397411346,0.01832032948732376
1772456734216087300,1.84608740234375,0.5491096377372742,-0.0768842101097107,0.09607481956481934
1772456734226107400,1.856107421875,0.8534740805625916,-0.19172078371047974,0.2625495493412018
1772456734236126200,1.866126220703125,1.033690333366394,-0.194365993142128,0.5048506855964661
1772456734246146300,1.876146240234375,1.1522114276885986,-0.09910924732685089,0.8087477087974548
1772456734256165400,1.886165283203125,1.2381815910339355,-0.03522086143493652,1.0866966247558594
1772456734266185200,1.896185302734375,1.2368865013122559,0.04786097630858421,1.3203256130218506
1772456734276204300,1.906204345703125,1.1050262451171875,0.2875661551952362,1.6427770853042603
1772456734286224400,1.916224365234375,0.774592936038971,0.3346380591392517,1.9141135215759277
1772456734296243200,1.9262431640625,0.24916216731071472,-0.4216848313808441,1.8384039402008057
1772456734306263300,1.93626318359375,-0.146766796708107,-1.2484948635101318,1.323966383934021
1772456734316282400,1.946282470703125,-0.2906889319419861,-1.1019481420516968,0.7527642250061035
1772456734326302200,1.95630224609375,-0.3912426829338074,-0.5058160424232483,0.28125476837158203
1772456734336321300,1.9663212890625,-0.5959346890449524,0.032826993614435196,-0.001988993026316166
1772456734346341400,1.97634130859375,-0.8559577465057373,0.4709486663341522,-0.0682404488325119
1772456734356360200,1.986360107421875,-1.0434376001358032,0.7024854421615601,-0.041462965309619904
1772456734366380300,1.99638037109375,-1.1613210439682007,0.5878693461418152,-0.03764159604907036
1772456734376399400,2.0063994140625,-1.2011957168579102,0.14789935946464539,-0.17107684910297394
1772456734386419200,2.016419189453125,-1.1088926792144775,-0.39571282267570496,-0.41861259937286377
1772456734396437800,2.026437744140625,-0.9343926310539246,-0.7715342044830322,-0.6998479962348938
1772456734406457600,2.03645751953125,-0.8152555823326111,-1.0396162271499634,-0.9554198384284973
1772456734416476700,2.0464765625,-0.7779172658920288,-1.1216188669204712,-1.1334648132324219
1772456734426496800,2.056496826171875,-0.790463387966156,-0.9609408378601074,-1.2093467712402344
1772456734436515600,2.066515625,-0.8205121159553528,-0.628127932548523,-1.2255868911743164
1772456734446535700,2.07653564453125,-0.8132094144821167,-0.28990060091018677,-1.2211852073669434
1772456734456554800,2.0865546875,-0.7286827564239502,-0.13490238785743713,-1.2023727893829346
1772456734466574600,2.09657470703125,-0.5273637771606445,-0.32111912965774536,-1.178061604499817
1772456734476593700,2.10659375,-0.28087979555130005,-0.7105019688606262,-1.1212244033813477
1772456734486613800,2.11661376953125,-0.11704450100660324,-1.011253833770752,-0.9857200980186462
1772456734496632600,2.126632568359375,-0.06751951575279236,-1.0692764520645142,-0.7972089648246765
1772456734506652700,2.136652587890625,-0.07010597735643387,-0.9266709089279175,-0.6493625044822693
1772456734516671700,2.146671630859375,-0.06626947224140167,-0.6487723588943481,-0.585624098777771
1772456734526691600,2.156691650390625,-0.04906758293509483,-0.29432398080825806,-0.583538830280304
1772456734536710700,2.166710693359375,-0.018429426476359367,0.10334646701812744,-0.5749596953392029
1772456734546730800,2.176730712890625,0.031586069613695145,0.46006596088409424,-0.5300204753875732
1772456734556749600,2.18674951171875,0.10130554437637329,0.701773464679718,-0.41414302587509155
1772456734566769700,2.196769775390625,0.17602504789829254,0.8412901163101196,-0.2491426169872284
1772456734576788700,2.206788818359375,0.21569612622261047,0.8666935563087463,-0.05709456652402878
1772456734586808600,2.21680859375,0.22882497310638428,0.7915617823600769,0.13158853352069855
1772456734596827600,2.22682763671875,0.2511378228664398,0.6596552133560181,0.29483097791671753
1772456734606847700,2.23684765625,0.3313511908054352,0.585621178150177,0.3939724564552307
1772456734616866600,2.246866455078125,0.4221540689468384,0.4859997034072876,0.4618658125400543
1772456734626886700,2.25688671875,0.527093231678009,0.27916690707206726,0.5096056461334229
1772456734636905700,2.26690576171875,0.6341692805290222,0.07886166870594025,0.5420543551445007
1772456734646925600,2.276925537109375,0.7411710619926453,-0.002387644723057747,0.563186764717102
1772456734656944600,2.286944580078125,0.8476669192314148,-0.02539430558681488,0.6017150282859802
1772456734666964700,2.29696484375,0.9399393200874329,-0.045702774077653885,0.6703036427497864
1772456734676983600,2.306983642578125,1.001569390296936,-0.09623098373413086,0.7666817903518677
1772456734687003600,2.317003662109375,1.0005624294281006,-0.2792820334434509,0.8368083834648132
1772456734697022700,2.327022705078125,0.9215233325958252,-0.49773189425468445,0.8004612326622009
1772456734707042800,2.337042724609375,0.7858877182006836,-0.6757863163948059,0.7534053325653076
1772456734717061600,2.3470615234375,0.6651183366775513,-0.6159537434577942,0.7374416589736938
1772456734727081500,2.35708154296875,0.5214322805404663,-0.4509437382221222,0.8035405278205872
1772456734737100500,2.3671005859375,0.22433799505233765,-0.3396049439907074,0.9320505857467651
1772456734747120600,2.37712060546875,-0.3052246570587158,-0.2180984914302826,1.0635830163955688
1772456734757139700,2.3871396484375,-0.8742464184761047,-0.0990658774971962,1.0661576986312866
1772456734767159800,2.397159912109375,-1.2655972242355347,-0.1357163041830063,0.8388912081718445
1772456734777179000,2.407178955078125,-1.4261502027511597,-0.3268694281578064,0.40143051743507385
1772456734787198500,2.417198486328125,-1.4656288623809814,-0.6491643786430359,-0.1600562334060669
1772456734797217500,2.427217529296875,-1.4664840698242188,-0.7702332735061646,-0.7133285999298096
1772456734807237600,2.437237548828125,-1.4432429075241089,-0.4939737021923065,-1.1461371183395386
1772456734817256700,2.447256591796875,-1.3671998977661133,0.06923011690378189,-1.4105504751205444
1772456734827276800,2.45727685546875,-1.2311421632766724,0.7029567360877991,-1.5221375226974487
1772456734837295900,2.4672958984375,-1.0504133701324463,1.198609709739685,-1.5292202234268188
1772456734847315500,2.4773154296875,-0.8413940668106079,1.5389747619628906,-1.4624180793762207
1772456734857334500,2.48733447265625,-0.6050874590873718,1.6683629751205444,-1.3317301273345947
1772456734867354600,2.497354736328125,-0.3041744828224182,1.4585598707199097,-1.1630429029464722
1772456734877373700,2.507373779296875,-0.0032664965838193893,0.970544159412384,-0.978515088558197
1772456734887393800,2.517393798828125,0.21921557188034058,0.370185911655426,-0.7801061272621155
1772456734897412600,2.52741259765625,0.2935490608215332,-0.22295355796813965,-0.6323261260986328
1772456734907432400,2.537432373046875,0.2535174787044525,-0.7009736895561218,-0.5935616493225098
1772456734917451500,2.547451416015625,0.16915671527385712,-0.8829799294471741,-0.6015124917030334
1772456734927471600,2.5574716796875,0.07898873835802078,-0.6845635175704956,-0.6057131290435791
1772456734937490700,2.56749072265625,0.05760733038187027,-0.2299969494342804,-0.5866766571998596
1772456734947510800,2.5775107421875,0.09350088983774185,0.2917671501636505,-0.5577837824821472
1772456734957529600,2.587529541015625,0.1468125730752945,0.6676507592201233,-0.5074803829193115
1772456734967549400,2.597549560546875,0.18495357036590576,0.8432854413986206,-0.4333041310310364
1772456734977568500,2.607568603515625,0.18256089091300964,0.8521906137466431,-0.31611257791519165
1772456734987588600,2.617588623046875,0.12773865461349487,0.7406513094902039,-0.17413920164108276
1772456734997607700,2.627607666015625,0.03620350360870361,0.6083381772041321,-0.020365320146083832
1772456735007627800,2.637627685546875,-0.05853738635778427,0.48890551924705505,0.12987211346626282
1772456735017646600,2.647646484375,-0.1286490112543106,0.3429073095321655,0.28803327679634094
1772456735027666700,2.657666748046875,-0.14144602417945862,0.25480568408966064,0.42706865072250366
1772456735037685800,2.667685791015625,-0.1326221376657486,0.260296493768692,0.5772082805633545
1772456735047705600,2.67770556640625,-0.07166503369808197,0.2834353744983673,0.7265061736106873
1772456735057724700,2.687724609375,0.07817266881465912,0.27360138297080994,0.8620858192443848
1772456735067743500,2.697743408203125,0.30775657296180725,0.2759438753128052,0.9882813096046448
1772456735077763600,2.707763671875,0.5937626957893372,0.21985819935798645,1.1092088222503662
1772456735087783700,2.71778369140625,0.8909027576446533,0.04307570308446884,1.2147059440612793
1772456735097802800,2.727802734375,1.1427007913589478,-0.3066866397857666,1.2838319540023804
1772456735107821800,2.73782177734375,1.2718411684036255,-0.8377729058265686,1.2782899141311646
1772456735117841700,2.747841552734375,1.2377842664718628,-1.4478557109832764,1.2337366342544556
1772456735127860500,2.757860595703125,1.0673333406448364,-1.8861289024353027,1.1876826286315918
1772456735137880600,2.767880615234375,0.8618004322052002,-1.911446213722229,1.1407352685928345
1772456735147899600,2.777899658203125,0.7144531011581421,-1.5412402153015137,1.0482118129730225
1772456735157919700,2.787919677734375,0.6017636060714722,-0.9440033435821533,0.8550900816917419
1772456735167938800,2.797938720703125,0.3103700876235962,-0.12996424734592438,0.6123746633529663
1772456735177958700,2.807958740234375,-0.03612905740737915,0.37507688999176025,0.3356004059314728
1772456735187977500,2.8179775390625,-0.2606135606765747,0.5830756425857544,0.06466343998908997
1772456735197997600,2.82799755859375,-0.3341834843158722,0.49537110328674316,-0.08947180956602097
1772456735208016600,2.8380166015625,-0.3716096878051758,0.06897959113121033,-0.14668236672878265
1772456735218036700,2.84803662109375,-0.421796590089798,-0.49385708570480347,-0.18144887685775757
1772456735228055800,2.858055908203125,-0.46370330452919006,-0.9271954894065857,-0.2458244115114212
1772456735238075600,2.86807568359375,-0.4581383764743805,-1.0963205099105835,-0.39634180068969727
1772456735248094500,2.878094482421875,-0.3948363661766052,-0.9872032999992371,-0.6659407615661621
1772456735258114600,2.888114501953125,-0.3121008276939392,-0.625825047492981,-1.0246648788452148
1772456735268133600,2.898133544921875,-0.18695998191833496,-0.11593545973300934,-1.4236948490142822
1772456735278153700,2.90815380859375,-0.0734226331114769,0.4112756550312042,-1.7316045761108398
1772456735288172800,2.9181728515625,0.018130185082554817,0.731421947479248,-1.8766517639160156
1772456735298192600,2.928192626953125,0.12027373164892197,0.7464664578437805,-1.8588443994522095
1772456735308211500,2.93821142578125,0.24529342353343964,0.4030207097530365,-1.7045302391052246
1772456735318231600,2.9482314453125,0.34915682673454285,-0.10228205472230911,-1.4371906518936157
1772456735328250600,2.958250732421875,0.3846397399902344,-0.5141226053237915,-1.0907176733016968
1772456735338270700,2.968270751953125,0.3547399044036865,-0.6294533014297485,-0.7272573709487915
1772456735348289800,2.978289794921875,0.27573028206825256,-0.4140029847621918,-0.3613704442977905
1772456735358309600,2.9883095703125,0.19394829869270325,-0.02665373869240284,-0.03065788745880127
1772456735368328400,2.998328369140625,0.11124783754348755,0.376171737909317,0.24549220502376556
1772456735378348500,3.0083486328125,0.05015181750059128,0.7084997892379761,0.46312975883483887
1772456735388367600,3.01836767578125,0.006577974185347557,0.9393295645713806,0.6341952681541443
1772456735398388700,3.028388671875,0.0051233526319265366,1.0676482915878296,0.7256278991699219
1772456735408407600,3.038407470703125,0.010970856063067913,1.1296846866607666,0.7720465064048767
1772456735418427400,3.048427490234375,0.004572303034365177,1.0161799192428589,0.7882051467895508
1772456735428446500,3.058446533203125,-0.02499144710600376,0.7586553692817688,0.7649903893470764
1772456735438466600,3.068466552734375,-0.07874136418104172,0.539146363735199,0.7259293794631958
1772456735448485600,3.078485595703125,-0.14263354241847992,0.4258512556552887,0.6840264201164246
1772456735458505700,3.088505615234375,-0.17025579512119293,0.3962535262107849,0.6291295289993286
1772456735468524500,3.098524658203125,-0.14578773081302643,0.39352163672447205,0.5623936653137207
1772456735478544400,3.10854443359375,-0.061344001442193985,0.39844805002212524,0.4808828830718994
1772456735488563500,3.1185634765625,0.07719843834638596,0.43874648213386536,0.41825199127197266
1772456735498582500,3.12858251953125,0.24657659232616425,0.5065442323684692,0.4093729555606842
1772456735508602600,3.1386025390625,0.4160441756248474,0.49208518862724304,0.45685258507728577
1772456735518621400,3.148621337890625,0.5526347756385803,0.29607653617858887,0.568315327167511
1772456735528641500,3.1586416015625,0.6260756850242615,-0.018818296492099762,0.7298374176025391
1772456735538660600,3.16866064453125,0.6209027767181396,-0.334016889333725,0.8646128177642822
1772456735548680400,3.178680419921875,0.5142836570739746,-0.4346878230571747,0.8708123564720154
1772456735558699500,3.188699462890625,0.48565787076950073,-0.4859934151172638,0.8892322182655334
1772456735568719600,3.1987197265625,0.5470077991485596,-0.3667847216129303,0.8916218876838684
1772456735578738400,3.208738525390625,0.623435378074646,-0.39553335309028625,0.9754033088684082
1772456735588758500,3.218758544921875,0.5187763571739197,-0.5621212124824524,1.1451265811920166
1772456735598777600,3.228777587890625,0.2184862196445465,-0.4679235816001892,1.3438820838928223
1772456735608797400,3.23879736328125,-0.09420429915189743,-0.005903209559619427,1.3886830806732178
1772456735618816500,3.24881640625,-0.2983280420303345,0.4362124800682068,1.1213366985321045
1772456735628836600,3.258836669921875,-0.47230276465415955,0.4598104953765869,0.6114779114723206
1772456735638855400,3.26885546875,-0.6951860189437866,0.061926983296871185,0.017303382977843285
1772456735648875500,3.27887548828125,-0.8760820627212524,-0.3415009081363678,-0.5553146004676819
1772456735658894600,3.28889453125,-0.9098891615867615,-0.5013151168823242,-1.0220285654067993
1772456735668914400,3.29891455078125,-0.7333311438560486,-0.5061468482017517,-1.3137701749801636
1772456735678933500,3.30893359375,-0.44623109698295593,-0.4851369261741638,-1.427931547164917
1772456735688953600,3.31895361328125,-0.23444321751594543,-0.4747364819049835,-1.431688666343689
1772456735698972400,3.328972412109375,-0.11620812863111496,-0.4325176477432251,-1.375366449356079
1772456735708992500,3.338992431640625,-0.04504900425672531,-0.38480791449546814,-1.27249014377594
1772456735719011600,3.349011474609375,-0.023427549749612808,-0.3283900022506714,-1.119813084602356
1772456735729031700,3.35903173828125,-0.037789177149534225,-0.30228862166404724,-0.9592167735099792
1772456735739050800,3.36905078125,-0.0778575912117958,-0.2803756296634674,-0.8023298978805542
1772456735749070600,3.379070556640625,-0.14480198919773102,-0.2937990427017212,-0.678232729434967
1772456735759089400,3.38908935546875,-0.21262939274311066,-0.32896989583969116,-0.6155149936676025
1772456735769109500,3.399109619140625,-0.2548394203186035,-0.3164719343185425,-0.5893243551254272
1772456735779128600,3.409128662109375,-0.27431467175483704,-0.22716030478477478,-0.5686254501342773
1772456735789148700,3.419148681640625,-0.2945810556411743,-0.11581752449274063,-0.5409743785858154
1772456735799167700,3.429167724609375,-0.30740654468536377,-0.03662624582648277,-0.47947919368743896
1772456735809187300,3.439187255859375,-0.28913673758506775,0.0456334725022316,-0.38325414061546326
1772456735819206400,3.449206298828125,-0.24727773666381836,0.10019572824239731,-0.26511430740356445
1772456735829226500,3.4592265625,-0.18645380437374115,0.11325134336948395,-0.13856062293052673
1772456735839245600,3.46924560546875,-0.1272331327199936,0.1047186553478241,-0.01022225059568882
1772456735849264600,3.4792646484375,-0.08677731454372406,0.07289574295282364,0.09488845616579056
1772456735859284700,3.48928466796875,-0.05146916210651398,0.048854928463697433,0.14460429549217224
1772456735869303600,3.499303466796875,-0.047843534499406815,0.012938203290104866,0.1273009330034256
1772456735879323400,3.509323486328125,-0.10229647159576416,-0.0575631745159626,0.03577955439686775
1772456735889342500,3.519342529296875,-0.2001282274723053,-0.1299223154783249,-0.0893687754869461
1772456735899362600,3.529362548828125,-0.3002603352069855,-0.11603455245494843,-0.19972890615463257
1772456735909381600,3.539381591796875,-0.33733049035072327,0.011859229765832424,-0.2713247835636139
1772456735919401700,3.549401611328125,-0.24193330109119415,0.21243730187416077,-0.2855282425880432
1772456735929420500,3.559420654296875,0.05507946386933327,0.5466826558113098,-0.21254615485668182
1772456735939440400,3.5694404296875,0.4863370358943939,0.9149360060691833,-0.039523765444755554
1772456735949459500,3.57945947265625,0.8379288911819458,1.0510952472686768,0.22783923149108887
1772456735959479600,3.5894794921875,0.9685938954353333,0.7999412417411804,0.5710302591323853
1772456735969498600,3.59949853515625,0.8813985586166382,0.24224869906902313,0.9846522212028503
1772456735979518500,3.6095185546875,0.6402210593223572,-0.39637717604637146,1.4424545764923096
1772456735989537500,3.61953759765625,0.3068540394306183,-0.7728482484817505,1.7978150844573975
1772456735999557400,3.629557373046875,0.04275520145893097,-0.7505218982696533,1.90250563621521
1772456736009576400,3.639576416015625,-0.1977921575307846,-0.24194864928722382,1.6035276651382446
1772456736019596500,3.649596435546875,-0.5060861706733704,0.6184642314910889,0.9806357026100159
1772456736029615600,3.65961572265625,-0.7513206601142883,1.369124174118042,0.24641314148902893
1772456736039635500,3.669635498046875,-0.7813982963562012,1.4842731952667236,-0.3690606355667114
1772456736049654500,3.679654541015625,-0.6577671766281128,0.8808823823928833,-0.6673687696456909
1772456736059674600,3.689674560546875,-0.5651593208312988,0.12737642228603363,-0.5882893800735474
1772456736069693400,3.699693359375,-0.5679486989974976,-0.4041751027107239,-0.3066957890987396
1772456736079713500,3.709713623046875,-0.5422303676605225,-0.6474018692970276,-0.003813972231000662
1772456736089732600,3.719732666015625,-0.44815340638160706,-0.8917514085769653,0.23488062620162964
1772456736099752400,3.72975244140625,-0.3962516784667969,-1.2478772401809692,0.28993454575538635
1772456736109771500,3.739771484375,-0.4543972611427307,-1.5726432800292969,0.10681959241628647
1772456736119791600,3.74979150390625,-0.5272369980812073,-1.732313632965088,-0.19199693202972412
1772456736129810700,3.759810791015625,-0.49006223678588867,-1.891373872756958,-0.6072354316711426
1772456736139829800,3.769829833984375,-0.37409958243370056,-2.1653800010681152,-1.187744140625
1772456736149849300,3.779849365234375,-0.2761373519897461,-2.4063737392425537,-1.8063373565673828
1772456736159868400,3.789868408203125,-0.2373824566602707,-2.2267887592315674,-2.207298517227173
1772456736169888500,3.799888427734375,-0.2358386218547821,-1.6802557706832886,-2.2768638134002686
1772456736179907600,3.809907470703125,-0.26126229763031006,-0.7814352512359619,-2.0545716285705566
1772456736189927700,3.819927734375,-0.24765540659427643,0.2664421796798706,-1.6283468008041382
1772456736199946800,3.82994677734375,-0.16596543788909912,1.170154333114624,-1.1181294918060303
1772456736209966300,3.83996630859375,-0.019034583121538162,1.6785520315170288,-0.6274601817131042
1772456736219985400,3.8499853515625,0.160809725522995,1.6514261960983276,-0.2204945981502533
1772456736230005500,3.860005615234375,0.321567177772522,1.242770791053772,0.11890371143817902
1772456736240024600,3.870024658203125,0.4399128258228302,0.7343579530715942,0.3962719142436981
1772456736250044700,3.880044677734375,0.5466163754463196,0.2961377501487732,0.5772957801818848
1772456736260063700,3.890063720703125,0.6507919430732727,-0.08606106042861938,0.6994280815124512
1772456736270083300,3.900083251953125,0.7463802695274353,-0.43887820839881897,0.7386245131492615
1772456736280102400,3.910102294921875,0.8666650056838989,-0.6864417791366577,0.694835901260376
1772456736290122500,3.92012255859375,0.9491564035415649,-0.7159032821655273,0.6374011039733887
1772456736300141600,3.9301416015625,0.948009729385376,-0.5377628207206726,0.581456184387207
1772456736310161700,3.94016162109375,0.8704976439476013,-0.12635475397109985,0.5516125559806824
1772456736320180500,3.950180419921875,0.7918609380722046,0.3375836908817291,0.5360828638076782
1772456736330200300,3.960200439453125,0.7169107794761658,0.6674816608428955,0.544988751411438
1772456736340219400,3.970219482421875,0.6345417499542236,0.8974741101264954,0.5740444660186768
1772456736350239500,3.980239501953125,0.5674542784690857,1.008979320526123,0.644023597240448
1772456736360258600,3.990258544921875,0.5327427983283997,1.003265619277954,0.7520024180412292
1772456736370278700,4.000278564453125,0.5349571704864502,0.8812316060066223,0.8440991044044495
1772456736380297500,4.01029736328125,0.5855041742324829,0.5485225915908813,0.8634613752365112
1772456736390317600,4.020317626953125,0.6254057884216309,0.008720345795154572,0.8269800543785095
1772456736400336000,4.0303359375,0.5660598874092102,-0.6380528211593628,0.7735608816146851
1772456736410355000,4.04035498046875,0.4060305655002594,-1.1876795291900635,0.7205823659896851
1772456736420374800,4.050374755859375,0.17888140678405762,-1.213415265083313,0.7006886005401611
1772456736430393600,4.0603935546875,-0.05657932907342911,-0.5018372535705566,0.7392730116844177
1772456736440413700,4.07041357421875,-0.346741259098053,0.633292019367218,0.7793803215026855
1772456736450432800,4.080432861328125,-0.6826590895652771,1.6478439569473267,0.7520911693572998
1772456736460452900,4.090452880859375,-0.958389401435852,2.218550205230713,0.5925577282905579
1772456736470472000,4.100471923828125,-1.087355136871338,2.130520820617676,0.33335086703300476
1772456736480491800,4.11049169921875,-1.1350390911102295,1.6842269897460938,0.07582613825798035
1772456736490510600,4.120510498046875,-1.1656055450439453,0.9479464292526245,-0.13730238378047943
1772456736500530700,4.13053076171875,-1.2113730907440186,0.10553892701864243,-0.338579922914505
1772456736510549800,4.1405498046875,-1.1434690952301025,-0.36600250005722046,-0.5127842426300049
1772456736520569900,4.15056982421875,-0.8942136764526367,-0.264539510011673,-0.6165363192558289
1772456736530589000,4.1605888671875,-0.5487641096115112,0.025227615609765053,-0.6391835808753967
1772456736540608800,4.17060888671875,-0.2823067307472229,0.09891624748706818,-0.5837694406509399
1772456736550627600,4.180627685546875,-0.16375690698623657,0.006351429969072342,-0.40231820940971375
1772456736560647700,4.190647705078125,-0.1315711885690689,-0.1571512371301651,-0.18180711567401886
1772456736570666800,4.200666748046875,-0.15712794661521912,-0.44978204369544983,-0.0675809383392334
1772456736580686800,4.210686767578125,-0.17295072972774506,-0.7784311771392822,-0.1732151359319687
1772456736590706000,4.220705810546875,-0.12924718856811523,-1.0190376043319702,-0.505023181438446
1772456736600726000,4.23072607421875,-0.032434266060590744,-1.0586128234863281,-1.012911081314087
1772456736610744800,4.240744873046875,0.1299959272146225,-0.9125571250915527,-1.4797085523605347
1772456736620764700,4.2507646484375,0.3558388650417328,-0.57514888048172,-1.7194771766662598
1772456736630783700,4.26078369140625,0.5826531052589417,-0.2591528296470642,-1.6859428882598877
1772456736640802800,4.270802734375,0.777909517288208,-0.24835306406021118,-1.3800941705703735
1772456736650823000,4.280822998046875,0.9502913951873779,-0.586829662322998,-0.8753931522369385
1772456736660841700,4.290841796875,1.0393123626708984,-1.012940764427185,-0.2551094591617584
1772456736670861800,4.30086181640625,0.9964810609817505,-1.2201906442642212,0.3654603362083435
1772456736680881000,4.310880859375,0.8510185480117798,-1.2346446514129639,0.8532602190971375
1772456736690900700,4.320900634765625,0.580899178981781,-0.9388532042503357,1.1917088031768799
1772456736700919800,4.330919921875,0.23101593554019928,-0.39475634694099426,1.3997242450714111
1772456736710940000,4.34093994140625,-0.12845222651958466,0.2585594058036804,1.4927029609680176
1772456736720958700,4.350958740234375,-0.4203977584838867,0.914632260799408,1.5024499893188477
1772456736730978800,4.360978759765625,-0.5635088682174683,1.4435029029846191,1.4542765617370605
1772456736740998000,4.370997802734375,-0.533635675907135,1.7591683864593506,1.3576923608779907
1772456736751017700,4.381017822265625,-0.35177162289619446,1.6894394159317017,1.1619441509246826
1772456736761036800,4.391036865234375,-0.003550731111317873,1.0963650941848755,0.8089958429336548
1772456736771057000,4.401056884765625,0.3909872770309448,0.41654136776924133,0.4634515047073364
1772456736781075700,4.41107568359375,0.7475561499595642,-0.07021354138851166,0.3247453570365906
1772456736791095800,4.421095703125,0.9574047327041626,-0.47037506103515625,0.34458085894584656
1772456736801115000,4.431114990234375,1.0048235654830933,-0.8302545547485352,0.4334329068660736
1772456736811134700,4.441134765625,0.9596001505851746,-1.147758960723877,0.5684236884117126
1772456736821153800,4.45115380859375,0.8836393356323242,-1.4244519472122192,0.7199342250823975
1772456736831172600,4.461172607421875,0.83412104845047,-1.407726526260376,0.7788246870040894
1772456736841192700,4.471192626953125,0.7492860555648804,-1.26276695728302,0.8342931270599365
1772456736851211800,4.481211669921875,0.5461318492889404,-0.9196851253509521,0.9475352168083191
1772456736861231900,4.49123193359375,0.2207297831773758,-0.5802795886993408,1.1118146181106567
1772456736871251000,4.5012509765625,-0.17395947873592377,-0.255853533744812,1.241730809211731
1772456736881270800,4.511270751953125,-0.5954959988594055,-0.013388864696025848,1.2185524702072144
1772456736891289600,4.52128955078125,-0.880352258682251,0.09253570437431335,0.9613888263702393
1772456736901309700,4.531309814453125,-0.9998993277549744,0.1157551184296608,0.5403562784194946
1772456736911328800,4.541328857421875,-1.0572744607925415,-0.022492237389087677,-0.0010779419681057334
1772456736921348900,4.551348876953125,-1.0944660902023315,-0.017186222597956657,-0.5933822393417358
1772456736931368000,4.561367919921875,-1.0140196084976196,0.345278263092041,-1.1698269844055176
1772456736941387800,4.5713876953125,-0.7724201083183289,0.757171630859375,-1.6643929481506348
1772456736951406600,4.581406494140625,-0.4744693636894226,0.741551399230957,-2.060967206954956
1772456736961426700,4.5914267578125,-0.22917461395263672,0.46422359347343445,-2.3057548999786377
1772456736971445800,4.60144580078125,-0.0818735808134079,0.1307990401983261,-2.3943533897399902
1772456736981465900,4.6114658203125,0.0064849164336919785,-0.19765910506248474,-2.3352768421173096
1772456736991485000,4.62148486328125,0.048470981419086456,-0.4325256645679474,-2.145246982574463
1772456737001505000,4.631505126953125,0.007851293310523033,-0.509405791759491,-1.8642469644546509
1772456737011523800,4.64152392578125,-0.13013774156570435,-0.5043724179267883,-1.5351316928863525
1772456737021543700,4.651543701171875,-0.3388194739818573,-0.4333036541938782,-1.2350058555603027
1772456737031562800,4.661562744140625,-0.5511144399642944,-0.3313053846359253,-1.0164871215820312
1772456737041581800,4.671581787109375,-0.686515748500824,-0.23701579868793488,-0.8614956140518188
1772456737051602000,4.681601806640625,-0.7291039824485779,-0.16139480471611023,-0.7488026022911072
1772456737061620700,4.691620849609375,-0.6834605932235718,-0.11097797751426697,-0.6529650092124939
1772456737071640800,4.701640869140625,-0.5518119931221008,-0.10999633371829987,-0.5698832273483276
1772456737081660000,4.711659912109375,-0.3614501953125,-0.16216835379600525,-0.4686228930950165
1772456737091679700,4.7216796875,-0.21836014091968536,-0.15548887848854065,-0.31774017214775085
1772456737101698800,4.73169873046875,-0.18157681822776794,-0.052036140114068985,-0.1217690259218216
1772456737111719000,4.741718994140625,-0.2313385158777237,0.11007047444581985,0.0779680535197258
1772456737121737700,4.75173779296875,-0.3264837861061096,0.26666104793548584,0.24136199057102203
1772456737131757800,4.7617578125,-0.4231373369693756,0.3885914981365204,0.36086493730545044
1772456737141777000,4.77177685546875,-0.487833172082901,0.4502660632133484,0.42673900723457336
1772456737151796700,4.781796630859375,-0.49463996291160583,0.47567394375801086,0.43412473797798157
1772456737161815800,4.79181591796875,-0.4185938537120819,0.4262199103832245,0.4059351682662964
1772456737171835600,4.801835693359375,-0.2580249309539795,0.3162422776222229,0.36432114243507385
1772456737181854700,4.811854736328125,-0.05632232874631882,0.18308299779891968,0.3192687928676605
1772456737191874800,4.821874755859375,0.15014056861400604,0.02434048242866993,0.29269763827323914
1772456737201894000,4.831893798828125,0.3066386580467224,-0.1462790071964264,0.2825651466846466
1772456737211913700,4.841913818359375,0.3774600923061371,-0.33512431383132935,0.2638724148273468
1772456737221932800,4.851932861328125,0.4001001715660095,-0.5753846764564514,0.243398517370224
1772456737231951600,4.86195166015625,0.4088430404663086,-0.8103772401809692,0.2500670552253723
1772456737241971700,4.8719716796875,0.4030759036540985,-0.8944942951202393,0.3028774559497833
1772456737251990800,4.88199072265625,0.35147929191589355,-0.8718646168708801,0.41363218426704407
1772456737262011000,4.892010986328125,0.23857146501541138,-0.6147445440292358,0.5592827796936035
1772456737272030000,4.902030029296875,0.08956440538167953,-0.09111329913139343,0.7354612350463867
1772456737282049800,4.9120498046875,-0.01604258082807064,0.48654499650001526,1.000022530555725
1772456737292068600,4.922068603515625,-0.016562696546316147,0.8717198371887207,1.3204172849655151
1772456737302088700,4.932088623046875,0.06843307614326477,0.9246383905410767,1.57694673538208
1772456737312107800,4.942107666015625,0.13516230881214142,0.8110790848731995,1.6737159490585327
1772456737322128000,4.9521279296875,0.119709312915802,0.7085516452789307,1.5915358066558838
1772456737332147000,4.96214697265625,0.02798125334084034,0.6083358526229858,1.323928952217102
1772456737342166800,4.972166748046875,-0.08706412464380264,0.4503532648086548,0.9043161273002625
1772456737352185600,4.982185546875,-0.18611161410808563,0.3125796914100647,0.33594751358032227
1772456737362205700,4.992205810546875,-0.174979105591774,0.27482134103775024,-0.30730772018432617
1772456737372224800,5.002224853515625,0.041953474283218384,0.2645561695098877,-0.9099810719490051
1772456737382244900,5.012244873046875,0.4785749316215515,0.08858044445514679,-1.351095199584961
1772456737392264000,5.022263916015625,0.9890611171722412,-0.27357563376426697,-1.505806803703308
1772456737402284000,5.032283935546875,1.346582293510437,-0.7284953594207764,-1.3715752363204956
1772456737412302800,5.042302734375,1.4515563249588013,-1.2045493125915527,-1.0391021966934204
1772456737422322000,5.052322021484375,1.351201057434082,-1.5704561471939087,-0.6275535225868225
1772456737432341800,5.062341796875,1.1192331314086914,-1.8156737089157104,-0.27433422207832336
1772456737442360800,5.07236083984375,0.8080372214317322,-1.9705322980880737,-0.07788307219743729
1772456737452381000,5.082380859375,0.44252610206604004,-1.9471721649169922,-0.061432186514139175
1772456737462400000,5.09239990234375,0.09472295641899109,-1.6016484498977661,-0.19154565036296844
1772456737472420000,5.102420166015625,-0.13754117488861084,-0.9603073596954346,-0.40653732419013977
1772456737482439000,5.11243896484375,-0.2399277240037918,-0.2148512750864029,-0.643256425857544
1772456737492458800,5.122458740234375,-0.2653515934944153,0.4971669614315033,-0.8193827271461487
1772456737502477800,5.132477783203125,-0.2875370979309082,1.068479061126709,-0.8928053975105286
1772456737512498000,5.142497802734375,-0.3271753191947937,1.420772910118103,-0.8573414087295532
1772456737522517000,5.15251708984375,-0.39772069454193115,1.544154167175293,-0.7243194580078125
1772456737532536800,5.162536865234375,-0.5114651322364807,1.480208158493042,-0.5397434830665588
1772456737542556000,5.172555908203125,-0.6488626003265381,1.311445951461792,-0.3445483148097992
1772456737552575700,5.18257568359375,-0.7717688083648682,1.121000051498413,-0.1699914187192917
1772456737562594800,5.1925947265625,-0.8488191962242126,0.9979640245437622,-0.03163895383477211
1772456737572615000,5.202614990234375,-0.8788878917694092,0.9874221682548523,0.05204448848962784
1772456737582634000,5.212634033203125,-0.871237576007843,1.099040150642395,0.05354151874780655
1772456737592652800,5.22265283203125,-0.8062273859977722,1.2195156812667847,0.03288684040307999
1772456737602673000,5.2326728515625,-0.677023708820343,1.307801365852356,-0.014297010377049446
1772456737612692000,5.24269189453125,-0.4775817096233368,1.3574270009994507,-0.05640265345573425
1772456737622711800,5.2527119140625,-0.21009643375873566,1.3031238317489624,-0.06122073158621788
1772456737632731000,5.26273095703125,0.08066801726818085,1.0966424942016602,-0.007570021785795689
1772456737642751000,5.2727509765625,0.36168575286865234,0.7005786895751953,0.13766232132911682
1772456737652769800,5.282769775390625,0.6166336536407471,0.12936925888061523,0.3673250675201416
1772456737662790000,5.292789794921875,0.8130742907524109,-0.5537131428718567,0.6687965989112854
1772456737672809000,5.30280908203125,0.9266335964202881,-1.3817462921142578,1.0124549865722656
1772456737682828800,5.312828857421875,0.9163240194320679,-2.1734209060668945,1.3506394624710083
1772456737692847900,5.322847900390625,0.6099704504013062,-1.9356646537780762,1.4375265836715698
1772456737702867700,5.33286767578125,0.3597429394721985,-1.449462890625,1.6871843338012695
1772456737712886800,5.34288671875,0.03803122416138649,-0.5030255317687988,1.7955787181854248
1772456737722907000,5.352906982421875,-0.41137585043907166,0.2521122992038727,1.5242000818252563
1772456737732926000,5.362926025390625,-0.8766044974327087,0.9413886666297913,0.9513370990753174
1772456737742945800,5.37294580078125,-1.24558424949646,1.529956579208374,0.2372693419456482
1772456737752964900,5.38296484375,-1.4035019874572754,1.7818026542663574,-0.43301448225975037
1772456737762983700,5.392983642578125,-1.4125189781188965,1.4605376720428467,-0.9849856495857239
1772456737773003800,5.403003662109375,-1.3852306604385376,0.8833078742027283,-1.4113585948944092
1772456737783022800,5.41302294921875,-1.1781269311904907,0.6107140183448792,-1.705039620399475
1772456737793043000,5.42304296875,-0.7149510383605957,0.5485885739326477,-1.7569636106491089
1772456737803062000,5.43306201171875,-0.2427121102809906,0.36624273657798767,-1.5325664281845093
1772456737813081900,5.443081787109375,-0.0008243795018643141,0.07083453983068466,-1.1581193208694458
1772456737823101000,5.453100830078125,0.06279049813747406,-0.12213537842035294,-0.7665464282035828
1772456737833120800,5.463120849609375,0.028258083388209343,-0.0766267478466034,-0.4232329726219177
1772456737843139800,5.473139892578125,-0.11666315048933029,0.022229792550206184,-0.2167048305273056
1772456737853160000,5.483159912109375,-0.28341591358184814,-0.05990688502788544,-0.1966072916984558
1772456737863179000,5.493178955078125,-0.34417518973350525,-0.43705683946609497,-0.33634883165359497
1772456737873198800,5.50319873046875,-0.3187398612499237,-0.8009812235832214,-0.5549301505088806
1772456737883218000,5.513218017578125,-0.30042392015457153,-0.8829236626625061,-0.7152575850486755
1772456737893237800,5.52323779296875,-0.29493752121925354,-0.7288507223129272,-0.7895835041999817
1772456737903256800,5.5332568359375,-0.25331124663352966,-0.46655067801475525,-0.8256261944770813
1772456737913276000,5.54327587890625,-0.15778738260269165,-0.1882151961326599,-0.8145791292190552
1772456737923296000,5.5532958984375,-0.014710239134728909,-0.00348999397829175,-0.7483769655227661
1772456737933314800,5.563314697265625,0.1493695080280304,0.06609255075454712,-0.5706368088722229
1772456737943335000,5.5733349609375,0.2788395881652832,0.054536037147045135,-0.28563717007637024
1772456737953354000,5.58335400390625,0.35401955246925354,-0.006373387761414051,0.02092704176902771
1772456737963373800,5.593373779296875,0.38015222549438477,-0.16053588688373566,0.34463950991630554
1772456737973393000,5.603392822265625,0.33533868193626404,-0.3263600170612335,0.6332598328590393
1772456737983413000,5.6134130859375,0.2322975993156433,-0.425528883934021,0.8619917631149292
1772456737993431800,5.623431884765625,0.10908565670251846,-0.49568161368370056,1.0315356254577637
1772456738003452000,5.633451904296875,0.006913434714078903,-0.5900086164474487,1.1395716667175293
1772456738013471000,5.643470947265625,-0.03930412977933884,-0.6743181943893433,1.1906760931015015
1772456738023490800,5.65349072265625,-0.004664391279220581,-0.7781473398208618,1.1355047225952148
1772456738033510000,5.663510009765625,0.1347944289445877,-0.8969688415527344,0.9074249267578125
1772456738043529700,5.67352978515625,0.37909796833992004,-0.9406817555427551,0.5906100869178772
1772456738053548800,5.683548828125,0.693018913269043,-0.8338794112205505,0.3305622935295105
1772456738063569000,5.69356884765625,1.0047404766082764,-0.5924838185310364,0.17690469324588776
1772456738073588000,5.703587890625,1.235797643661499,-0.3913608193397522,0.0923333540558815
1772456738083607000,5.71360693359375,1.3036867380142212,-0.35743260383605957,0.0322854220867157
1772456738093627000,5.723626953125,1.2601464986801147,-0.7461710572242737,0.037072453647851944
1772456738103645700,5.733645751953125,1.1749718189239502,-1.333985447883606,0.05493452399969101
1772456738113665800,5.743665771484375,1.0110489130020142,-1.5826666355133057,0.1755131334066391
1772456738123684900,5.753684814453125,0.7819615006446838,-1.214152455329895,0.4715976119041443
1772456738133705000,5.763705078125,0.49202606081962585,-0.4640939235687256,0.8768641352653503
1772456738143724000,5.77372412109375,0.1117914468050003,0.2682976722717285,1.1719383001327515
1772456738153743600,5.78374365234375,-0.37388524413108826,0.9415375590324402,1.206407070159912
1772456738163762700,5.7937626953125,-0.8604250550270081,1.4956395626068115,0.9341868758201599
1772456738173782800,5.80378271484375,-1.141568899154663,1.8468111753463745,0.45362988114356995
1772456738183801900,5.8138017578125,-1.2385735511779785,1.7573521137237549,-0.09366889297962189
1772456738193822000,5.823822021484375,-1.3111166954040527,1.2161227464675903,-0.6508943438529968
1772456738203841000,5.833841064453125,-1.3689380884170532,0.7792741656303406,-1.122035026550293
1772456738213860900,5.84386083984375,-1.2380434274673462,0.612926185131073,-1.4566553831100464
1772456738223880000,5.8538798828125,-0.9291565418243408,0.45523107051849365,-1.6704944372177124
1772456738233898800,5.863898681640625,-0.6567100882530212,0.22332541644573212,-1.786399006843567
1772456738243918800,5.8739189453125,-0.5184031128883362,0.020971916615962982,-1.7685730457305908
1772456738253938000,5.88393798828125,-0.47854068875312805,-0.045328278094530106,-1.594109058380127
1772456738263958000,5.8939580078125,-0.478542298078537,0.0031915351282805204,-1.3151941299438477
1772456738273976800,5.903976806640625,-0.47453850507736206,0.0034586500842124224,-1.0468939542770386
1772456738283997000,5.913996826171875,-0.4326714873313904,-0.11842551082372665,-0.8592466711997986
1772456738294016000,5.92401611328125,-0.3438257575035095,-0.2724017798900604,-0.7625100016593933
1772456738304035800,5.934035888671875,-0.20652006566524506,-0.35607150197029114,-0.7234417796134949
1772456738314055000,5.944054931640625,-0.019226068630814552,-0.3199464976787567,-0.6895319819450378
1772456738324074800,5.95407470703125,0.1909111738204956,-0.18802249431610107,-0.6364344954490662
1772456738334093800,5.96409375,0.3860950469970703,-0.034279532730579376,-0.5417106747627258
1772456738344114000,5.974114013671875,0.5288165211677551,0.055315565317869186,-0.42187702655792236
1772456738354133000,5.984133056640625,0.6093326807022095,0.061682917177677155,-0.2971092462539673
1772456738364152000,5.994152099609375,0.6377114653587341,0.035930585116147995,-0.15240436792373657
1772456738374172000,6.004171875,0.6058518290519714,-0.0014383597299456596,0.027931055054068565
1772456738384190700,6.014190673828125,0.5205830335617065,-0.02641482651233673,0.2558319866657257
1772456738394210800,6.0242109375,0.3981836438179016,0.004200872965157032,0.48871931433677673
1772456738404231000,6.03423095703125,0.2530125379562378,0.13086387515068054,0.6863520741462708
1772456738414250800,6.044250732421875,0.10815362632274628,0.31877654790878296,0.8229053616523743
1772456738424269600,6.05426953125,0.002287441398948431,0.5009185075759888,0.8893858194351196
1772456738434289700,6.06428955078125,-0.03225881606340408,0.6080667972564697,0.8700464367866516
1772456738444308700,6.074308837890625,0.012150503695011139,0.6148413419723511,0.7860587239265442
1772456738454328800,6.084328857421875,0.1484643965959549,0.5418670177459717,0.6711869835853577
1772456738464348000,6.094347900390625,0.345446914434433,0.43200793862342834,0.5640140175819397
1772456738474367700,6.10436767578125,0.564480721950531,0.2730422616004944,0.4988214671611786
1772456738484386600,6.114386474609375,0.7630482912063599,0.05956051126122475,0.4966491460800171
1772456738494406700,6.12440673828125,0.8890330791473389,-0.20686638355255127,0.5611652731895447
1772456738504425700,6.13442578125,0.9079694747924805,-0.49310147762298584,0.6804623603820801
1772456738514444800,6.14444482421875,0.7932085394859314,-0.720389187335968,0.8295061588287354
1772456738524465000,6.15446484375,0.5588284730911255,-0.8791419267654419,1.005783200263977
1772456738534483700,6.164483642578125,0.29444420337677,-0.7481620907783508,1.2548604011535645
1772456738544503800,6.17450390625,0.06276828050613403,-0.294148325920105,1.5411121845245361
1772456738554523000,6.18452294921875,-0.1572146862745285,0.1135246604681015,1.6660363674163818
1772456738564542700,6.194542724609375,-0.38655540347099304,0.42420294880867004,1.4795598983764648
1772456738574561800,6.204561767578125,-0.5560352802276611,0.703533947467804,1.0744785070419312
1772456738584582000,6.214581787109375,-0.5844151973724365,0.7566882371902466,0.6092159152030945
1772456738594600700,6.2246005859375,-0.5542104244232178,0.48706313967704773,0.2618720531463623
1772456738604620800,6.234620849609375,-0.617938220500946,0.06832445412874222,0.11082994192838669
1772456738614639900,6.244639892578125,-0.8305969834327698,-0.20845068991184235,0.05931055545806885
1772456738624659700,6.25465966796875,-1.0101186037063599,-0.23030167818069458,-0.03098190203309059
1772456738634678800,6.2646787109375,-1.0111839771270752,-0.1885816752910614,-0.2740861773490906
1772456738644697600,6.274697509765625,-0.8484442234039307,-0.2169187217950821,-0.6312417984008789
1772456738654717700,6.2847177734375,-0.5890494585037231,-0.2905591130256653,-0.9505497813224792
1772456738664736800,6.29473681640625,-0.27686595916748047,-0.40884149074554443,-1.144708275794983
1772456738674756900,6.3047568359375,0.0444638691842556,-0.550910472869873,-1.1618388891220093
1772456738684776000,6.31477587890625,0.3150954842567444,-0.6899757385253906,-1.0456256866455078
1772456738694795800,6.324795654296875,0.5084055662155151,-0.7926259636878967,-0.8730051517486572
1772456738704814600,6.334814697265625,0.6168806552886963,-0.8367649912834167,-0.7051697969436646
1772456738714834700,6.344834716796875,0.6316856741905212,-0.8105301856994629,-0.6323165893554688
1772456738724853800,6.354853759765625,0.5799782872200012,-0.6809000372886658,-0.7145854830741882
1772456738734873900,6.364873779296875,0.5149580240249634,-0.4433647394180298,-0.935542643070221
1772456738744893000,6.374892822265625,0.4505367577075958,-0.1384524554014206,-1.1618188619613647
1772456738754912800,6.384912841796875,0.3801611363887787,0.2213059812784195,-1.271907091140747
1772456738764931600,6.394931640625,0.3091955780982971,0.5724583864212036,-1.2393194437026978
1772456738774950700,6.40495068359375,0.26844337582588196,0.7784895896911621,-1.0812618732452393
1772456738784970800,6.414970703125,0.27837470173835754,0.7888504862785339,-0.8145074844360352
1772456738794989800,6.42498974609375,0.30830463767051697,0.6606959700584412,-0.49261364340782166
1772456738805010000,6.435010009765625,0.33288663625717163,0.4878562390804291,-0.1628199815750122
1772456738815028700,6.44502880859375,0.29862186312675476,0.30165785551071167,0.1277865469455719
1772456738825048600,6.455048583984375,0.1900472640991211,0.16529686748981476,0.37302690744400024
1772456738835067600,6.465067626953125,0.05199378356337547,0.19820821285247803,0.5525575280189514
1772456738845087700,6.475087646484375,-0.03814395144581795,0.4017644226551056,0.6768506169319153
1772456738855106800,6.48510693359375,-0.06317447125911713,0.6731107234954834,0.7426149845123291
1772456738865127000,6.495126953125,-0.03199490159749985,0.8834304809570312,0.7437252402305603
1772456738875145700,6.505145751953125,0.0619659498333931,1.0180432796478271,0.6508704423904419
1772456738885165600,6.51516552734375,0.19162684679031372,0.9264165163040161,0.49121177196502686
1772456738895184600,6.5251845703125,0.33359381556510925,0.5506492853164673,0.2706168293952942
1772456738905203700,6.53520361328125,0.45672768354415894,0.009555237367749214,0.06283599883317947
1772456738915223800,6.545223876953125,0.5623992681503296,-0.45294448733329773,-0.04159186780452728
1772456738925242600,6.55524267578125,0.6131511330604553,-0.820756733417511,0.00520141888409853
1772456738935262700,6.5652626953125,0.6164718866348267,-1.128677487373352,0.18338926136493683
1772456738945281800,6.57528173828125,0.5854336023330688,-1.165888786315918,0.4760841131210327
1772456738955302000,6.585302001953125,0.48775815963745117,-0.786749005317688,0.9123929738998413
1772456738965320700,6.59532080078125,0.18121302127838135,-0.2067185640335083,1.4419944286346436
1772456738975340800,6.6053408203125,-0.2569880187511444,0.3899485468864441,2.036085367202759
1772456738985359600,6.615359619140625,-0.718261182308197,0.7491034865379333,2.3962502479553223
1772456738995379700,6.625379638671875,-1.094900131225586,0.6130276918411255,2.1149251461029053
1772456739005398800,6.635398681640625,-1.3466041088104248,0.6475990414619446,1.3418010473251343
1772456739015419000,6.6454189453125,-1.5153369903564453,0.849836528301239,0.4017651081085205
1772456739025438000,6.65543798828125,-1.5646913051605225,0.5653213858604431,-0.5764124989509583
1772456739035456800,6.665456787109375,-1.4595577716827393,0.1822161078453064,-1.3477240800857544
1772456739045476600,6.6754765625,-1.1323176622390747,0.022563880309462547,-1.7368228435516357
1772456739055495700,6.68549560546875,-0.655401349067688,-0.2208261489868164,-1.717064619064331
1772456739065515800,6.695515869140625,-0.2848203778266907,-0.690000593662262,-1.357309341430664
1772456739075534800,6.705534912109375,-0.13099807500839233,-1.1933889389038086,-0.7728032469749451
1772456739085555000,6.715554931640625,-0.16515232622623444,-1.4355865716934204,-0.1440427005290985
1772456739095573800,6.72557373046875,-0.3256509304046631,-1.3547130823135376,0.3293118178844452
1772456739105593600,6.735593505859375,-0.5413880348205566,-1.125003695487976,0.5180546045303345
1772456739115612700,6.74561279296875,-0.6946233510971069,-0.9655429720878601,0.3811579942703247
1772456739125632800,6.7556328125,-0.7216265201568604,-0.8935521245002747,-0.00722130062058568
1772456739135651800,6.76565185546875,-0.6267649531364441,-0.7447682023048401,-0.4732643961906433
1772456739145672000,6.775671875,-0.43350327014923096,-0.5013800263404846,-0.9049325585365295
1772456739155690800,6.785690673828125,-0.17517024278640747,-0.17637880146503448,-1.2618813514709473
1772456739165709800,6.795709716796875,0.08697787672281265,0.18479007482528687,-1.4996592998504639
1772456739175729700,6.805729736328125,0.34551435708999634,0.5296114087104797,-1.6141331195831299
1772456739185748700,6.815748779296875,0.5686555504798889,0.7058393359184265,-1.6023308038711548
1772456739195768800,6.825768798828125,0.7178990840911865,0.5910994410514832,-1.4404281377792358
1772456739205787600,6.83578759765625,0.7687945365905762,0.3137613534927368,-1.1346527338027954
1772456739215807700,6.845807861328125,0.8046742081642151,0.13137026131153107,-0.8152204155921936
1772456739225826800,6.855826904296875,0.7467502355575562,0.10279028117656708,-0.4740583896636963
1772456739235846700,6.8658466796875,0.6841403841972351,0.06684479117393494,-0.19354580342769623
1772456739245865700,6.87586572265625,0.6593267917633057,0.2218358963727951,0.042113106697797775
1772456739255885800,6.8858857421875,0.6217581033706665,0.5947873592376709,0.2427852302789688
1772456739265904600,6.895904541015625,0.5780041217803955,0.9852032661437988,0.3990827202796936
1772456739275924700,6.9059248046875,0.5295018553733826,1.3137235641479492,0.5237370133399963
1772456739285943800,6.91594384765625,0.5114506483078003,1.5478984117507935,0.6375725865364075
1772456739295963000,6.925962890625,0.5502361059188843,1.6149696111679077,0.7537753582000732
1772456739305982700,6.935982666015625,0.6271448135375977,1.3746060132980347,0.8593405485153198
1772456739316001500,6.94600146484375,0.6993367075920105,0.767952561378479,0.8992117643356323
1772456739326021600,6.956021728515625,0.7660008072853088,-0.1223105937242508,0.8216981291770935
1772456739336040700,6.966040771484375,0.8101682662963867,-0.992000162601471,0.6953228712081909
1772456739346060800,6.976060791015625,0.7905327677726746,-1.9053939580917358,0.7463327646255493
1772456739356079900,6.986079833984375,0.6952890753746033,-2.6742045879364014,0.8257279992103577
1772456739366099700,6.996099609375,0.5469351410865784,-3.085127830505371,1.0116280317306519
1772456739376118800,7.006118896484375,0.41994020342826843,-2.9619345664978027,1.3477773666381836
1772456739386138600,7.016138671875,0.2603585720062256,-2.4831745624542236,1.7442522048950195
1772456739396157700,7.02615771484375,0.02222803421318531,-1.9802255630493164,2.0372354984283447
1772456739406176300,7.03617626953125,-0.23471581935882568,-1.5686442852020264,2.102813243865967
1772456739416196400,7.0461962890625,-0.473903626203537,-1.1724377870559692,1.8942376375198364
1772456739426215200,7.056215087890625,-0.6810534000396729,-0.6478583216667175,1.448738932609558
1772456739436235300,7.0662353515625,-0.8803356289863586,0.023852702230215073,0.8698198795318604
1772456739446254300,7.07625439453125,-0.9995096921920776,0.7648916840553284,0.19644394516944885
1772456739456274200,7.086274169921875,-0.9249742031097412,1.4425042867660522,-0.5063096880912781
1772456739466293200,7.096293212890625,-0.6084315180778503,1.789358377456665,-1.1610101461410522
1772456739476313300,7.106313232421875,-0.19310086965560913,1.7268366813659668,-1.6587270498275757
1772456739486332200,7.116332275390625,0.11593461781740189,1.468485713005066,-1.9250421524047852
1772456739496352300,7.126352294921875,0.205204039812088,1.1477404832839966,-1.9953267574310303
1772456739506371300,7.136371337890625,0.07638031244277954,0.8993937373161316,-1.948992133140564
1772456739516391200,7.14639111328125,-0.11954019218683243,0.8081055879592896,-1.8339654207229614
1772456739526410200,7.15641015625,-0.2555740475654602,0.8009302020072937,-1.6961485147476196
1772456739536429000,7.166428955078125,-0.2526552081108093,0.7658931612968445,-1.57210111618042
1772456739546449200,7.17644921875,-0.13447536528110504,0.6739336252212524,-1.4336047172546387
1772456739556468200,7.18646826171875,0.06353119015693665,0.546277642250061,-1.2405377626419067
1772456739566488300,7.19648828125,0.31163743138313293,0.3829989731311798,-0.9815064072608948
1772456739576507400,7.20650732421875,0.5588189363479614,0.2082444727420807,-0.6467891335487366
1772456739586527200,7.21652734375,0.7419626712799072,0.01489871647208929,-0.24392038583755493
1772456739596546000,7.226546142578125,0.8026174902915955,-0.11450508236885071,0.19134078919887543
1772456739606566100,7.236566162109375,0.7288879156112671,-0.1467856615781784,0.6127001047134399
1772456739616585200,7.246585205078125,0.5558607578277588,-0.09030454605817795,0.9804679751396179
1772456739626605300,7.256605224609375,0.32763656973838806,0.030382271856069565,1.2636703252792358
1772456739636624400,7.266624267578125,0.10895057022571564,0.15902867913246155,1.4400970935821533
1772456739646643200,7.276643310546875,-0.06398678570985794,0.23838993906974792,1.495797872543335
1772456739656663300,7.286663330078125,-0.1743447184562683,0.24570190906524658,1.4286582469940186
1772456739666682400,7.296682373046875,-0.2090119570493698,0.18488189578056335,1.2560484409332275
1772456739676702200,7.3067021484375,-0.15509547293186188,0.14782880246639252,1.0281376838684082
1772456739686721300,7.31672119140625,-0.012396871112287045,0.1400149017572403,0.7896069884300232
1772456739696741400,7.326741455078125,0.20636609196662903,0.12355204671621323,0.5711691379547119
1772456739706760200,7.33676025390625,0.4500197172164917,0.05298792943358421,0.39962974190711975
1772456739716780300,7.3467802734375,0.6773061156272888,-0.08992501348257065,0.30522096157073975
1772456739726799400,7.35679931640625,0.8357994556427002,-0.31023624539375305,0.3044010400772095
1772456739736819200,7.366819091796875,0.9089956879615784,-0.556460976600647,0.4097253382205963
1772456739746838300,7.37683837890625,0.9188651442527771,-0.7440482378005981,0.6048205494880676
1772456739756857000,7.386857177734375,0.8752857446670532,-0.8611807227134705,0.8640561103820801
1772456739766877200,7.396877197265625,0.750030517578125,-0.971754252910614,1.1367520093917847
1772456739776896300,7.406896240234375,0.5541670322418213,-1.197783350944519,1.3587565422058105
1772456739786916400,7.416916259765625,0.3190762996673584,-1.5531295537948608,1.4795323610305786
1772456739796935400,7.426935302734375,0.10106673091650009,-1.9732840061187744,1.4758247137069702
1772456739806955300,7.436955322265625,-0.010523002594709396,-2.1596591472625732,1.3595489263534546
1772456739816974000,7.44697412109375,-0.02558397687971592,-1.9920574426651,1.2026416063308716
1772456739826994200,7.456994140625,-0.040809545665979385,-1.4843794107437134,1.0527479648590088
1772456739837013200,7.46701318359375,-0.19770249724388123,-0.7225668430328369,0.8829370737075806
1772456739847033300,7.477033447265625,-0.4692307710647583,0.05112802982330322,0.6598960757255554
1772456739857052400,7.487052490234375,-0.770957350730896,0.5739790201187134,0.3493991494178772
1772456739867071200,7.4970712890625,-1.0536741018295288,0.7302651405334473,-0.05074593424797058
1772456739877091000,7.507091064453125,-1.242098331451416,0.6721946597099304,-0.48809635639190674
1772456739887110100,7.517110107421875,-1.2677513360977173,0.7414414286613464,-0.9007862210273743
1772456739897130200,7.527130126953125,-1.114601969718933,0.776149332523346,-1.2576687335968018
1772456739907149300,7.5371494140625,-0.8699241876602173,0.5446988940238953,-1.5179295539855957
1772456739917169400,7.54716943359375,-0.6608215570449829,0.10673592239618301,-1.608157753944397
1772456739927188200,7.557188232421875,-0.5026515126228333,-0.2948761582374573,-1.5052757263183594
1772456739937208000,7.5672080078125,-0.38030698895454407,-0.5735013484954834,-1.3336552381515503
1772456739947227100,7.57722705078125,-0.3262190818786621,-0.6757863759994507,-1.174390196800232
1772456739957247200,7.587247314453125,-0.3405572474002838,-0.5868639349937439,-1.1042052507400513
1772456739967266300,7.597266357421875,-0.38550806045532227,-0.3872731328010559,-1.1342729330062866
1772456739977285000,7.60728515625,-0.3833828568458557,-0.12765085697174072,-1.2583818435668945
1772456739987305200,7.61730517578125,-0.2995629608631134,0.1852393001317978,-1.3859082460403442
1772456739997324300,7.62732421875,-0.17284654080867767,0.5088205933570862,-1.4334901571273804
1772456740007344000,7.63734423828125,-0.05055896192789078,0.7409279942512512,-1.380856990814209
1772456740017363200,7.64736328125,0.0640304684638977,0.7967489361763,-1.2296485900878906
1772456740027383300,7.65738330078125,0.16685180366039276,0.7529740333557129,-0.9677197933197021
1772456740037402000,7.667402099609375,0.2477879375219345,0.6739226579666138,-0.6186304688453674
1772456740047422200,7.677422119140625,0.27418753504753113,0.5455928444862366,-0.2368115782737732
1772456740057441300,7.687441162109375,0.24589227139949799,0.3411974012851715,0.1015840470790863
1772456740067461400,7.69746142578125,0.21063189208507538,0.1319459229707718,0.3364885449409485
1772456740077480200,7.707480224609375,0.19171199202537537,-0.019881684333086014,0.44588935375213623
1772456740087499300,7.717499267578125,0.12844990193843842,-0.06876787543296814,0.467112272977829
1772456740097519000,7.72751904296875,0.07560959458351135,-0.07052263617515564,0.4288197457790375
1772456740107538200,7.7375380859375,0.08783348649740219,0.07853564620018005,0.35908830165863037
1772456740117558300,7.747558349609375,0.15229104459285736,0.36097079515457153,0.3026524484157562
1772456740127577300,7.757577392578125,0.22784961760044098,0.6241534352302551,0.24740782380104065
1772456740137597400,7.767597412109375,0.2790376842021942,0.8004818558692932,0.20482148230075836
1772456740147616300,7.7776162109375,0.2960735559463501,0.8505942225456238,0.20128339529037476
1772456740157636000,7.787635986328125,0.30790650844573975,0.8001627326011658,0.2577788829803467
1772456740167655200,7.7976552734375,0.3283082842826843,0.7131972312927246,0.3715965151786804
1772456740177675300,7.80767529296875,0.3502969443798065,0.6175330281257629,0.5346493124961853
1772456740187694300,7.8176943359375,0.3641164302825928,0.4778273105621338,0.7212924957275391
1772456740197713200,7.827713134765625,0.36182478070259094,0.2806769609451294,0.9268733263015747
1772456740207733200,7.837733154296875,0.3165396451950073,0.03517325967550278,1.1292012929916382
1772456740217752300,7.84775244140625,0.2050360143184662,-0.3400525450706482,1.267421007156372
1772456740227772200,7.857772216796875,0.020736660808324814,-0.95348060131073,1.239890694618225
1772456740237791200,7.867791259765625,-0.20575718581676483,-1.4371737241744995,0.9961619973182678
1772456740247811300,7.877811279296875,-0.3159613311290741,-1.2604897022247314,0.661927342414856
1772456740257830100,7.887830078125,-0.2497117519378662,-0.45031028985977173,0.3840422034263611
1772456740267850200,7.897850341796875,-0.2107476443052292,0.21130429208278656,0.10570306330919266
1772456740277869300,7.907869384765625,-0.2846916615962982,0.49609580636024475,-0.2290879786014557
1772456740287889200,7.91788916015625,-0.33813241124153137,0.8850116729736328,-0.44372227787971497
1772456740297908200,7.927908203125,-0.40449947118759155,1.2357712984085083,-0.4783705174922943
1772456740307927000,7.937927001953125,-0.5131421685218811,1.169740915298462,-0.4454474449157715
1772456740317947100,7.947947021484375,-0.6023950576782227,1.0017646551132202,-0.48657891154289246
1772456740327966200,7.95796630859375,-0.5118166208267212,0.9813022613525391,-0.640408992767334
1772456740337986300,7.967986328125,-0.15740153193473816,0.8799420595169067,-0.8673691749572754
1772456740348005400,7.97800537109375,0.317905068397522,0.39711886644363403,-1.0413838624954224
1772456740358025200,7.988025146484375,0.6888086199760437,-0.3184613287448883,-1.0527968406677246
1772456740368044000,7.9980439453125,0.8828407526016235,-0.8997660279273987,-0.9455217123031616
1772456740378064100,8.008064208984376,0.89962238073349,-1.2304693460464478,-0.8424714803695679
1772456740388083200,8.018083251953126,0.7983556985855103,-1.328023910522461,-0.7682420015335083
1772456740398103300,8.028103271484374,0.6383670568466187,-1.300134539604187,-0.7064337730407715
1772456740408121900,8.038121826171874,0.4416699707508087,-1.1665802001953125,-0.6574389338493347
1772456740418141000,8.048140869140624,0.23120009899139404,-0.8945358395576477,-0.6245472431182861
1772456740428160800,8.058160888671875,0.03872623294591904,-0.4997938275337219,-0.595632016658783
1772456740438179800,8.068179931640625,-0.14276926219463348,-0.06636516004800797,-0.6205543875694275
1772456740448199700,8.07819970703125,-0.3069562017917633,0.29013970494270325,-0.7075930237770081
1772456740458218800,8.08821875,-0.41557589173316956,0.5352243185043335,-0.7896780371665955
1772456740468238800,8.09823876953125,-0.47932443022727966,0.6329498291015625,-0.8099439740180969
1772456740478258000,8.1082578125,-0.5202388167381287,0.594055712223053,-0.7609668374061584
1772456740488277800,8.11827783203125,-0.565902054309845,0.4682580232620239,-0.6651926040649414
1772456740498296800,8.128296875,-0.6252806782722473,0.31735771894454956,-0.5570815801620483
1772456740508316000,8.13831591796875,-0.694850504398346,0.208801731467247,-0.4574294090270996
1772456740518335700,8.148335693359375,-0.7481869459152222,0.20205435156822205,-0.3336070775985718
1772456740528354800,8.158354736328125,-0.7597997188568115,0.3677457869052887,-0.175717294216156
1772456740538374700,8.168374755859375,-0.72343909740448,0.6305649280548096,0.0035635260865092278
1772456740548393700,8.178393798828125,-0.6444794535636902,0.8892310857772827,0.19145670533180237
1772456740558413800,8.188413818359376,-0.5275653600692749,1.053195595741272,0.37739434838294983
1772456740568433000,8.198432861328126,-0.3807593584060669,1.094225287437439,0.5489214062690735
1772456740578452700,8.20845263671875,-0.18989087641239166,1.014855146408081,0.7078511118888855
1772456740588471800,8.218471923828124,0.022611387073993683,0.908012330532074,0.8263317346572876
1772456740598491600,8.22849169921875,0.23264916241168976,0.7338123917579651,0.894930362701416
1772456740608510700,8.2385107421875,0.4772636890411377,0.318090558052063,0.9235343337059021
1772456740618529800,8.24852978515625,0.7651617527008057,-0.2109752893447876,0.9001510143280029
1772456740628550000,8.2585498046875,0.9862520694732666,-0.5786533951759338,0.8014811873435974
1772456740638569000,8.26856884765625,1.1332283020019531,-0.8784040212631226,0.7022266387939453
1772456740648588800,8.2785888671875,1.1595627069473267,-1.314119577407837,0.6774592399597168
1772456740658607600,8.288607666015626,0.9889879822731018,-1.676052212715149,0.8076596260070801
1772456740668627700,8.298627685546874,0.63862144947052,-1.6530022621154785,1.0429946184158325
1772456740678646800,8.308646728515624,0.20190265774726868,-1.3441040515899658,1.337098240852356
1772456740688667000,8.3186669921875,-0.21125748753547668,-0.8375875949859619,1.6393007040023804
1772456740698686000,8.32868603515625,-0.5342488884925842,-0.25943243503570557,1.7833250761032104
1772456740708704800,8.338704833984375,-0.7368137240409851,0.32983484864234924,1.6389106512069702
1772456740718724600,8.348724609375,-0.8111960887908936,0.8017297387123108,1.206398606300354
1772456740728743700,8.35874365234375,-0.8249363899230957,0.9811986088752747,0.6530179381370544
1772456740738763800,8.368763671875,-0.8880466818809509,0.7428243160247803,0.11559660732746124
1772456740748782800,8.378782958984376,-0.9469137191772461,0.44763022661209106,-0.3982369005680084
1772456740758803000,8.388802978515624,-0.7874732613563538,0.42203405499458313,-0.8710173964500427
1772456740768821800,8.39882177734375,-0.2928520739078522,0.3569943308830261,-1.2688260078430176
1772456740778841900,8.408841796875,0.43124592304229736,0.04565700516104698,-1.4786738157272339
1772456740788860700,8.418860595703125,1.1595458984375,-0.392606645822525,-1.4330008029937744
1772456740798880800,8.428880859375,1.7479496002197266,-0.7642365097999573,-1.1430914402008057
1772456740808899800,8.43889990234375,2.114193916320801,-1.0670604705810547,-0.7533575296401978
1772456740818918700,8.448918701171875,2.1924002170562744,-1.361953616142273,-0.3372259736061096
1772456740828938800,8.458938720703125,2.006700038909912,-1.4644526243209839,0.08564191311597824
1772456740838957800,8.468957763671876,1.631831169128418,-1.2502676248550415,0.4220221936702728
1772456740848978000,8.47897802734375,1.1738449335098267,-0.8854499459266663,0.5487188696861267
1772456740858997000,8.4889970703125,0.7403814196586609,-0.52339768409729,0.42039868235588074
1772456740869016800,8.499016845703125,0.4106951057910919,-0.22515451908111572,0.08114605396986008
1772456740879035600,8.50903564453125,0.21502450108528137,0.02905079536139965,-0.3262212872505188
1772456740889055700,8.5190556640625,0.12898868322372437,0.2576621472835541,-0.6994062662124634
1772456740899074800,8.52907470703125,0.11479305475950241,0.45571818947792053,-0.9510920643806458
1772456740909094000,8.539093994140625,0.10499874502420425,0.6067085266113281,-1.052905559539795
1772456740919114000,8.549114013671876,0.04348157346248627,0.6451207399368286,-1.031241536140442
1772456740929132800,8.5591328125,-0.10291984677314758,0.5505468249320984,-0.9061073064804077
1772456740939152600,8.569152587890626,-0.3336796164512634,0.3599017262458801,-0.6879676580429077
1772456740949171700,8.579171630859374,-0.5957276821136475,0.19377055764198303,-0.4164370894432068
1772456740959192800,8.58919287109375,-0.8635352849960327,0.1482825130224228,-0.13708417117595673
1772456740969212000,8.5992119140625,-1.0892096757888794,0.23200589418411255,0.09257431328296661
1772456740979231000,8.60923095703125,-1.2030208110809326,0.3795206844806671,0.2214183509349823
1772456740989250800,8.619250732421875,-1.1549830436706543,0.5166674256324768,0.2261742204427719
1772456740999269600,8.62926953125,-0.9534652829170227,0.5796178579330444,0.11034440994262695
1772456741009289700,8.639289794921876,-0.6480140089988708,0.5386462211608887,-0.06927940994501114
1772456741019308800,8.649308837890626,-0.3401941657066345,0.39806315302848816,-0.22199766337871552
1772456741029329000,8.659328857421874,-0.09689469635486603,0.11558780074119568,-0.2675457000732422
1772456741039348000,8.669347900390624,0.060341980308294296,-0.3411385118961334,-0.19524885714054108
1772456741049367600,8.679367431640625,0.12882409989833832,-0.8993719220161438,0.00687734829261899
1772456741059386600,8.68938671875,0.0901239737868309,-1.4658116102218628,0.3120182156562805
1772456741069406700,8.69940673828125,-0.051875241100788116,-1.8372554779052734,0.6414344310760498
1772456741079425800,8.70942578125,-0.3038676083087921,-1.7566611766815186,0.9017348289489746
1772456741089444900,8.71944482421875,-0.5967519283294678,-1.0850025415420532,1.1173765659332275
1772456741099465000,8.72946484375,-0.8200051188468933,-0.0799233466386795,1.3070504665374756
1772456741109483800,8.73948388671875,-0.927033007144928,0.5829734206199646,1.3036248683929443
1772456741119503600,8.749503662109374,-0.9541643857955933,0.7618025541305542,0.9843961596488953
1772456741129522700,8.759522705078124,-0.9406118392944336,0.7602778673171997,0.5210913419723511
1772456741139542800,8.769542724609375,-0.9139413833618164,0.7256311178207397,0.10220800340175629
1772456741149561900,8.779561767578125,-0.9110835194587708,0.5699092149734497,-0.15683715045452118
1772456741159581700,8.789581787109375,-1.0225874185562134,0.3815617561340332,-0.3005087673664093
1772456741169600800,8.799600830078125,-1.1835755109786987,0.35597702860832214,-0.45494866371154785
1772456741179619800,8.809619873046875,-1.1629693508148193,0.5217695236206055,-0.6821061968803406
1772456741189639700,8.8196396484375,-0.8715606927871704,0.6307365298271179,-0.9554770588874817
1772456741199658800,8.82965869140625,-0.4007548391819,0.43608880043029785,-1.1888941526412964
1772456741209678800,8.839678955078124,0.07459969818592072,0.14432168006896973,-1.2181655168533325
1772456741219697700,8.84969775390625,0.4158647358417511,-0.12928053736686707,-1.0103529691696167
1772456741229717800,8.8597177734375,0.5924323201179504,-0.41978374123573303,-0.6683277487754822
1772456741239736800,8.86973681640625,0.6284095644950867,-0.6920098662376404,-0.32003867626190186
1772456741249757000,8.8797568359375,0.5550066828727722,-0.8464689254760742,-0.0471687875688076
1772456741259776000,8.88977587890625,0.41273027658462524,-0.8019087314605713,0.10447444021701813
1772456741269794800,8.899794921875,0.2330169677734375,-0.5885972380638123,0.08989070355892181
1772456741279814700,8.909814697265626,0.05842377245426178,-0.28275978565216064,-0.06736896932125092
1772456741289833700,8.919833740234376,-0.08142813295125961,0.045119285583496094,-0.2933483123779297
1772456741299853800,8.929853759765624,-0.17827259004116058,0.39946985244750977,-0.4983800947666168
1772456741309873000,8.939872802734374,-0.22570934891700745,0.7455843687057495,-0.6436800360679626
1772456741319893000,8.94989306640625,-0.23271195590496063,1.0385770797729492,-0.7087439894676208
1772456741329911800,8.959911865234375,-0.220260351896286,1.2022459506988525,-0.6891205310821533
1772456741339931600,8.969931640625,-0.21433508396148682,1.171566128730774,-0.580666184425354
1772456741349950700,8.97995068359375,-0.2383783608675003,0.978367030620575,-0.37041735649108887
1772456741359969800,8.9899697265625,-0.2933478355407715,0.7442793250083923,-0.09086209535598755
1772456741369990000,8.999989990234376,-0.37409913539886475,0.6180101037025452,0.22763361036777496
1772456741380008700,9.0100087890625,-0.4670102596282959,0.6342869997024536,0.530441403388977
1772456741390028800,9.02002880859375,-0.5283164978027344,0.7405961155891418,0.7822784781455994
1772456741400048400,9.03004833984375,-0.5452463626861572,0.8550662398338318,0.9485332369804382
1772456741410068500,9.040068359375,-0.5022724866867065,0.9090389013290405,1.0180318355560303
1772456741420087600,9.050087646484375,-0.3918948173522949,0.8885645866394043,0.9937212467193604
1772456741430107600,9.060107666015625,-0.20848582684993744,0.7894529700279236,0.9100610017776489
1772456741440126500,9.07012646484375,0.026986341923475266,0.6139093637466431,0.814052164554596
1772456741450146600,9.080146484375,0.277014821767807,0.3772236108779907,0.7443130612373352
1772456741460165400,9.090165283203126,0.5047922730445862,0.05582570657134056,0.7228410243988037
1772456741470184400,9.100184326171876,0.6534318327903748,-0.360769659280777,0.7330659627914429
1772456741480204500,9.11020458984375,0.6921594738960266,-0.8065615296363831,0.778690755367279
1772456741490223400,9.120223388671874,0.6173368692398071,-1.2268011569976807,0.839959979057312
1772456741500243500,9.130243408203125,0.45642122626304626,-1.6142692565917969,0.8758065700531006
1772456741510262500,9.140262451171875,0.2483428567647934,-1.9227482080459595,0.8064967393875122
1772456741520282600,9.15028271484375,0.06201896071434021,-1.9949252605438232,0.5807954668998718
1772456741530301700,9.1603017578125,-0.04008903354406357,-1.8984378576278687,0.2943442463874817
1772456741540321500,9.170321533203126,-0.02558857575058937,-1.6649404764175415,0.08440959453582764
1772456741550340400,9.18034033203125,0.032806556671857834,-1.2882976531982422,0.05343170464038849
1772456741560359400,9.190359375,-0.05413312092423439,-0.6822004318237305,0.14757026731967926
1772456741570379500,9.200379638671874,-0.27607032656669617,0.055870670825242996,0.2380215972661972
1772456741580398600,9.210398681640624,-0.4862230122089386,0.5191385746002197,0.2195582538843155
1772456741590418700,9.220418701171875,-0.5937371850013733,0.455832302570343,0.045614149421453476
1772456741600437500,9.2304375,-0.5853356719017029,0.2118879109621048,-0.24142207205295563
1772456741610457300,9.240457275390625,-0.4558277726173401,0.12053827941417694,-0.5705277919769287
1772456741620476400,9.250476318359375,-0.23918507993221283,0.032845474779605865,-0.916487991809845
1772456741630496500,9.26049658203125,-0.04026105999946594,-0.27561596035957336,-1.2334574460983276
1772456741640515600,9.270515625,0.04993162304162979,-0.7332300543785095,-1.4480090141296387
1772456741650534400,9.280534423828126,0.07262788712978363,-1.0901740789413452,-1.538158893585205
1772456741660554500,9.290554443359374,0.11569522321224213,-1.2623732089996338,-1.500325322151184
1772456741670573600,9.300573486328124,0.15311875939369202,-1.2621865272521973,-1.3983337879180908
1772456741680593400,9.310593505859375,0.11924179643392563,-1.1135724782943726,-1.275277853012085
1772456741690612500,9.320612548828125,0.0022118480410426855,-0.8339061737060547,-1.1619377136230469
1772456741700632600,9.330632568359375,-0.15810255706310272,-0.4526855945587158,-1.084473729133606
1772456741710651400,9.3406513671875,-0.31578510999679565,-0.038502778857946396,-1.0544759035110474
1772456741720671500,9.35067138671875,-0.41261786222457886,0.3671169877052307,-1.0355507135391235
1772456741730690600,9.360690673828126,-0.41032248735427856,0.7503405213356018,-1.0172598361968994
1772456741740709600,9.370709716796876,-0.3129446506500244,1.0645036697387695,-0.9644343256950378
1772456741750729500,9.3807294921875,-0.17350925505161285,1.2116981744766235,-0.857047438621521
1772456741760748300,9.390748291015624,-0.031910013407468796,1.1658488512039185,-0.6846140623092651
1772456741770768400,9.400768310546875,0.08546934276819229,0.9586234092712402,-0.4466720521450043
1772456741780787500,9.410787353515625,0.15813133120536804,0.6446948051452637,-0.16040289402008057
1772456741790807600,9.4208076171875,0.17653270065784454,0.2696381211280823,0.12957167625427246
1772456741800826600,9.43082666015625,0.1496695727109909,-0.06731219589710236,0.3910363018512726
1772456741810846500,9.440846435546876,0.10340806841850281,-0.2781493365764618,0.6036401391029358
1772456741820865300,9.450865234375,0.06416069716215134,-0.38171207904815674,0.7361206412315369
1772456741830884400,9.46088427734375,0.05187820643186569,-0.3891090154647827,0.7743213176727295
1772456741840904400,9.470904541015624,0.073520727455616,-0.2957702577114105,0.7269055843353271
1772456741850923500,9.480923583984374,0.13920733332633972,-0.08500261604785919,0.6570700407028198
1772456741860943600,9.490943603515625,0.25325721502304077,0.18682190775871277,0.6049448251724243
1772456741870962400,9.50096240234375,0.4164735674858093,0.4056333601474762,0.5861705541610718
1772456741880982300,9.510982177734375,0.6122943758964539,0.45893189311027527,0.5948393940925598
1772456741891001300,9.52100146484375,0.8091360926628113,0.3437267541885376,0.6426849365234375
1772456741901021400,9.531021484375,0.9537896513938904,0.14571024477481842,0.7250852584838867
1772456741911040500,9.54104052734375,1.0235958099365234,-0.09057074040174484,0.8448503017425537
1772456741921059300,9.551059326171876,1.0321383476257324,-0.34893444180488586,0.9916799068450928
1772456741931079400,9.561079345703124,0.9294175505638123,-0.5912392139434814,1.1395721435546875
1772456741941098500,9.571098388671874,0.7203227877616882,-0.8837026357650757,1.2345068454742432
1772456741951118600,9.58111865234375,0.42636173963546753,-1.0479083061218262,1.2323267459869385
1772456741961137400,9.591137451171875,0.17063337564468384,-0.8549850583076477,1.1788276433944702
1772456741971157500,9.601157470703125,0.07040771096944809,-0.4420233368873596,1.15651273727417
1772456741981176300,9.61117626953125,0.06213399022817612,-0.043523646891117096,1.1774792671203613
1772456741991196400,9.621196533203126,-0.0006151442648842931,0.27929753065109253,1.2220629453659058
1772456742001215500,9.631215576171876,-0.16975095868110657,0.4510660171508789,1.208652138710022
1772456742011234600,9.641234619140626,-0.35177165269851685,0.40891537070274353,1.0844635963439941
1772456742021254700,9.651254638671874,-0.4618660807609558,0.2804797887802124,0.8891274929046631
1772456742031273700,9.661273681640624,-0.5052668452262878,0.0614377036690712,0.6425531506538391
1772456742041293300,9.671293212890625,-0.5495299696922302,-0.1586441993713379,0.33876919746398926
1772456742051312400,9.6813125,-0.5443517565727234,-0.24282139539718628,0.03448601812124252
1772456742061332500,9.69133251953125,-0.49061688780784607,-0.2983735501766205,-0.24045369029045105
1772456742071351600,9.7013515625,-0.40799203515052795,-0.45088106393814087,-0.45820945501327515
1772456742081371600,9.71137158203125,-0.3246132433414459,-0.5981934666633606,-0.6242279410362244
1772456742091390500,9.721390380859376,-0.2519614100456238,-0.7670490741729736,-0.7602747082710266
1772456742101409500,9.731409423828126,-0.24187003076076508,-0.9097102284431458,-0.8810049891471863
1772456742111429400,9.741429443359374,-0.33990925550460815,-0.9432088136672974,-1.0017679929733276
1772456742121448400,9.751448486328124,-0.5154867172241211,-0.9290805459022522,-1.1808993816375732
1772456742131468500,9.761468505859375,-0.6870161294937134,-0.8460195064544678,-1.3852616548538208
1772456742141487600,9.771487548828125,-0.7804679274559021,-0.5561462044715881,-1.5256767272949219
1772456742151507500,9.781507568359375,-0.7583264112472534,-0.1511888951063156,-1.593880534172058
1772456742161526500,9.791526611328125,-0.6557251214981079,0.3118317723274231,-1.5720984935760498
1772456742171546400,9.80154638671875,-0.5026456117630005,0.8189210891723633,-1.4070312976837158
1772456742181565400,9.8115654296875,-0.32878273725509644,1.243316888809204,-1.09711754322052
1772456742191584500,9.82158447265625,-0.17090360820293427,1.4626656770706177,-0.6893287301063538
1772456742201604600,9.8316044921875,-0.035402387380599976,1.4252642393112183,-0.22406718134880066
1772456742211623400,9.84162353515625,0.04573507606983185,1.2120965719223022,0.23863281309604645
1772456742221643500,9.8516435546875,0.06805747002363205,0.8930156230926514,0.6522200107574463
1772456742231662600,9.86166259765625,0.03598848730325699,0.5486076474189758,0.9791712164878845
1772456742241682400,9.871682373046875,-0.042924970388412476,0.2602149546146393,1.1696141958236694
1772456742251701500,9.881701416015625,-0.15527655184268951,0.15589496493339539,1.2195096015930176
1772456742261720300,9.89172021484375,-0.265626460313797,0.2559748589992523,1.1529254913330078
1772456742271740400,9.901740478515626,-0.32914870977401733,0.5090907216072083,1.0006917715072632
1772456742281759500,9.911759521484376,-0.3126806318759918,0.8269463777542114,0.797435998916626
1772456742291779600,9.921779541015624,-0.22447088360786438,1.1445326805114746,0.5728731751441956
1772456742301798700,9.931798583984374,-0.1007964015007019,1.3935235738754272,0.3810980021953583
1772456742311818500,9.941818603515625,0.030666017904877663,1.5582786798477173,0.2529168725013733
1772456742321837300,9.95183740234375,0.1655469685792923,1.579586148262024,0.17887364327907562
1772456742331857400,9.961857421875,0.3078596591949463,1.4177336692810059,0.15311980247497559
1772456742341876500,9.97187646484375,0.441532164812088,1.1024495363235474,0.1787828952074051
1772456742351895600,9.9818955078125,0.5031214952468872,0.6056347489356995,0.27960005402565
1772456742361915600,9.99191552734375,0.5004773139953613,-0.08805805444717407,0.41377416253089905
1772456742371934500,10.0019345703125,0.41467854380607605,-0.8086599111557007,0.4739837050437927
1772456742381954300,10.011954345703124,0.16452346742153168,-1.0263583660125732,0.34376123547554016
1772456742391973400,10.021973388671874,0.05345074087381363,-1.0658234357833862,0.21313929557800293
1772456742401992700,10.03199267578125,0.07962220162153244,-0.98446124792099,0.0552334301173687
1772456742412011800,10.04201171875,0.1385912448167801,-0.7579247951507568,-0.0707511305809021
1772456742422032000,10.052031982421875,0.11936212331056595,-0.38614705204963684,-0.1051158756017685
1772456742432051000,10.062051025390625,0.00862895417958498,-0.0035770293325185776,-0.06805239617824554
1772456742442069800,10.07206982421875,-0.14968188107013702,0.27022650837898254,0.0025580204091966152
1772456742452089900,10.08208984375,-0.28264713287353516,0.27504071593284607,0.0648011565208435
1772456742462109000,10.09210888671875,-0.35302281379699707,0.04816575348377228,0.04197772592306137
1772456742472128800,10.102128662109376,-0.31472787261009216,-0.07493539899587631,-0.09557188302278519
1772456742482147800,10.11214794921875,-0.042436469346284866,0.09336354583501816,-0.27344396710395813
1772456742492168000,10.12216796875,0.4020208716392517,0.2853952944278717,-0.3870030343532562
1772456742502186800,10.132186767578125,0.8089118003845215,0.10897811502218246,-0.40997424721717834
1772456742512206800,10.142206787109375,1.0405631065368652,-0.4246375858783722,-0.34004443883895874
1772456742522226000,10.152225830078125,1.10942542552948,-1.1115375757217407,-0.123275987803936
1772456742532245000,10.162244873046875,1.0961740016937256,-1.5778175592422485,0.2545328438282013
1772456742542264800,10.172264892578125,0.9736102223396301,-1.7437399625778198,0.6423898935317993
1772456742552283600,10.18228369140625,0.7106952667236328,-1.6278890371322632,0.8785457015037537
1772456742562303700,10.1923037109375,0.369449645280838,-1.2682383060455322,0.8732848167419434
1772456742572322800,10.20232275390625,0.06549084186553955,-0.677383542060852,0.628458559513092
1772456742582343000,10.212343017578124,-0.11857760697603226,0.05174015462398529,0.21342915296554565
1772456742592362000,10.222362060546875,-0.17308612167835236,0.7614883184432983,-0.2620300352573395
1772456742602380800,10.232380859375,-0.13598717749118805,1.3082380294799805,-0.6785498857498169
1772456742612401000,10.24240087890625,-0.05107202008366585,1.5836155414581299,-0.9391250014305115
1772456742622419700,10.252419677734375,0.048897579312324524,1.62421452999115,-0.9990239143371582
1772456742632439800,10.262439697265625,0.11503399163484573,1.4613611698150635,-0.881742000579834
1772456742642459000,10.272458984375,0.11134186387062073,1.1103501319885254,-0.6416906118392944
1772456742652479000,10.28247900390625,0.04291486367583275,0.6949314475059509,-0.33647793531417847
1772456742662497800,10.292497802734376,-0.05572570115327835,0.3443240821361542,-0.013316920027136803
1772456742672518000,10.302517822265624,-0.15426479279994965,0.07250270992517471,0.2650529146194458
1772456742682537000,10.312536865234375,-0.24438704550266266,-0.12818239629268646,0.47247451543807983
1772456742692556000,10.32255615234375,-0.3181858956813812,-0.20343933999538422,0.616066575050354
1772456742702575900,10.332575927734375,-0.35830774903297424,-0.19082388281822205,0.6681966185569763
1772456742712594700,10.3425947265625,-0.3753724992275238,-0.14731262624263763,0.6191981434822083
1772456742722614800,10.35261474609375,-0.39015135169029236,-0.09069213271141052,0.48635178804397583
1772456742732633900,10.3626337890625,-0.41663435101509094,-0.03729335963726044,0.2864154875278473
1772456742742654000,10.372654052734376,-0.45718634128570557,-0.003203778527677059,0.06271221488714218
1772456742752673000,10.382673095703124,-0.5032318234443665,0.0029233561363071203,-0.15921485424041748
1772456742762692000,10.392692138671874,-0.5450069904327393,-0.020476236939430237,-0.3637082278728485
1772456742772711700,10.402711669921874,-0.5719984173774719,-0.08769787847995758,-0.5271751880645752
1772456742782730800,10.412730712890625,-0.5804536938667297,-0.18467237055301666,-0.6527983546257019
1772456742792750800,10.422750732421875,-0.5713350772857666,-0.297283798456192,-0.750369668006897
1772456742802770000,10.43277001953125,-0.5475165843963623,-0.4385676980018616,-0.794526219367981
1772456742812790000,10.4427900390625,-0.505923867225647,-0.5934246778488159,-0.7855125069618225
1772456742822809000,10.45280908203125,-0.4544099271297455,-0.7691407203674316,-0.7481151819229126
1772456742832828700,10.46282861328125,-0.35811641812324524,-0.9394197463989258,-0.6952077746391296
1772456742842847700,10.47284765625,-0.21596722304821014,-1.0930818319320679,-0.6278603076934814
1772456742852866800,10.48286669921875,-0.04410918429493904,-1.2466354370117188,-0.550925612449646
1772456742862887000,10.492886962890625,0.09924522042274475,-1.376336693763733,-0.4495507478713989
1772456742872906000,10.502906005859375,0.18015630543231964,-1.373345971107483,-0.3041355013847351
1772456742882925800,10.51292578125,0.207626074552536,-1.254899263381958,-0.1273067742586136
1772456742892945000,10.52294482421875,0.18376149237155914,-1.0968153476715088,0.020534612238407135
1772456742902964700,10.53296484375,0.1516554355621338,-0.9221052527427673,0.124637171626091
1772456742912983800,10.54298388671875,0.11502686142921448,-0.7687340974807739,0.18003705143928528
1772456742923003000,10.5530029296875,0.06385829299688339,-0.5966785550117493,0.20246054232120514
1772456742933023000,10.56302294921875,-0.006721599027514458,-0.40241512656211853,0.1911998987197876
1772456742943041800,10.573041748046874,-0.07670138776302338,-0.26475685834884644,0.1424046754837036
1772456742953062000,10.583061767578124,-0.10404112935066223,-0.1553715020418167,0.057554490864276886
1772456742963081000,10.5930810546875,-0.08754382282495499,-0.009597551077604294,-0.03205607458949089
1772456742973100800,10.603100830078125,-0.08181323111057281,0.12820105254650116,-0.11529050767421722
1772456742983120000,10.613119873046875,-0.1044115200638771,0.23234142363071442,-0.18888597190380096
1772456742993140000,10.623139892578125,-0.10932851582765579,0.3120810091495514,-0.23161159455776215
1772456743003158800,10.63315869140625,-0.1039576530456543,0.38006094098091125,-0.24249865114688873
1772456743013177900,10.643177734375,-0.13468439877033234,0.4516538977622986,-0.23891936242580414
1772456743023198000,10.653197998046876,-0.16214077174663544,0.487189918756485,-0.2419622242450714
1772456743033217000,10.663217041015624,-0.1553686261177063,0.4882432222366333,-0.2427704930305481
1772456743043236900,10.67323681640625,-0.12232112139463425,0.47756120562553406,-0.22880896925926208
1772456743053255700,10.683255615234375,-0.08936236798763275,0.47694575786590576,-0.18317383527755737
1772456743063275800,10.69327587890625,-0.07418562471866608,0.45402124524116516,-0.12246253341436386
1772456743073294800,10.703294921875,-0.07256215810775757,0.36611056327819824,-0.07593657821416855
1772456743083314000,10.71331396484375,-0.0670270323753357,0.22858448326587677,-0.06390487402677536
1772456743093334000,10.723333984375,-0.058798130601644516,0.1320164054632187,-0.07160326838493347
1772456743103352800,10.733352783203125,-0.05655195936560631,0.12001533061265945,-0.08645820617675781
1772456743113373000,10.743373046875,-0.06358669698238373,0.21624092757701874,-0.0995686873793602
1772456743123391700,10.753391845703124,-0.05256948620080948,0.34116455912590027,-0.07425510883331299
1772456743133411800,10.763411865234374,-0.023407071828842163,0.4055320918560028,-0.03964999318122864
1772456743143431000,10.773430908203125,0.012658723630011082,0.38309288024902344,0.004440597724169493
1772456743153451000,10.783450927734375,0.06994092464447021,0.3394492566585541,0.05035482347011566
1772456743163469800,10.7934697265625,0.12497162073850632,0.2659277021884918,0.0871419683098793
1772456743173489000,10.803489013671875,0.15499448776245117,0.23940663039684296,0.09166748076677322
1772456743183509000,10.813509033203125,0.1622079610824585,0.38959378004074097,0.1689438819885254
1772456743193528000,10.823528076171876,0.13223834335803986,0.4201415777206421,0.24877798557281494
1772456743203548000,10.8335478515625,0.08627137541770935,0.19833220541477203,0.2332616150379181
1772456743213566700,10.843566650390626,0.086278036236763,-0.09567570686340332,0.16180767118930817
1772456743223586800,10.8535869140625,0.09643887728452682,-0.2321578860282898,0.08446864783763885
1772456743233606000,10.86360595703125,0.035831987857818604,-0.2668690085411072,0.007966686971485615
1772456743243625000,10.873625,-0.055072229355573654,-0.2542290687561035,-0.010821530595421791
1772456743253645000,10.88364501953125,-0.07377507537603378,-0.21169625222682953,0.03385219722986221
1772456743263663900,10.893663818359375,-0.015266758389770985,-0.2711215019226074,0.03206388279795647
