time,seconds_elapsed,z,y,x
1772456732443888400,0.073888427734375,0.13807184994220734,0.1561025232076645,0.933302104473114
1772456732453908500,0.083908447265625,0.25865498185157776,0.3476216197013855,1.036025881767273
1772456732463927600,0.093927490234375,0.385807603597641,0.38823428750038147,1.1141153573989868
1772456732473947600,0.10394775390625,0.507927656173706,0.35055774450302124,1.1632237434387207
1772456732483966500,0.113966552734375,0.5917314887046814,0.29512858390808105,1.1860374212265015
1772456732493986600,0.123986572265625,0.6278303861618042,0.1621428281068802,1.1705846786499023
1772456732504005400,0.13400537109375,0.6115608215332031,0.0011856392957270145,1.1468099355697632
1772456732514025500,0.144025390625,0.5339800119400024,-0.11148019134998322,1.1412526369094849
1772456732524044500,0.15404443359375,0.41359958052635193,-0.14402322471141815,1.1521286964416504
1772456732534064600,0.164064697265625,0.2696514427661896,-0.14845019578933716,1.1408675909042358
1772456732544083700,0.174083740234375,0.0825342908501625,-0.24701325595378876,1.0373387336730957
1772456732554103300,0.184103271484375,-0.16347867250442505,-0.4326832592487335,0.8138329982757568
1772456732564122400,0.194122314453125,-0.428320974111557,-0.5197598338127136,0.5471091866493225
1772456732574142500,0.204142578125,-0.6928615570068359,-0.5009070634841919,0.2306068390607834
1772456732584161500,0.21416162109375,-0.9375022053718567,-0.012181831523776054,-0.19248662889003754
1772456732594181600,0.224181640625,-1.0852493047714233,0.5397050380706787,-0.6746455430984497
1772456732604200700,0.23420068359375,-1.2461556196212769,1.3812447786331177,-1.0685659646987915
1772456732614220300,0.24422021484375,-1.5711688995361328,2.113518238067627,-1.3410637378692627
1772456732624239400,0.2542392578125,-2.0100512504577637,2.51601243019104,-1.460883617401123
1772456732634259500,0.264259521484375,-2.355367660522461,2.8334388732910156,-1.332362413406372
1772456732644278500,0.274278564453125,-2.500427007675171,2.5368072986602783,-1.0397002696990967
1772456732654298600,0.284298583984375,-2.4798483848571777,1.519003987312317,-0.6682949662208557
1772456732664317400,0.2943173828125,-2.4177451133728027,0.3861285150051117,-0.1841975301504135
1772456732674337300,0.304337158203125,-2.351775646209717,-0.35770487785339355,0.36124661564826965
1772456732684356400,0.3143564453125,-2.161245107650757,-0.7855475544929504,0.7792148590087891
1772456732694376400,0.32437646484375,-1.7454173564910889,-1.0771586894989014,0.9087485671043396
1772456732704395500,0.3343955078125,-1.0989662408828735,-1.2629069089889526,0.7877611517906189
1772456732714415600,0.34441552734375,-0.21113301813602448,-1.4144221544265747,0.5482801198959351
1772456732724434400,0.354434326171875,0.8093599677085876,-1.4920711517333984,0.303684264421463
1772456732734454300,0.364454345703125,1.7714356184005737,-1.4705944061279297,0.12378133088350296
1772456732744473300,0.374473388671875,2.4422895908355713,-1.481589436531067,0.024457406252622604
1772456732754493400,0.384493408203125,2.694035530090332,-1.6546294689178467,-0.01901576854288578
1772456732764513500,0.394513427734375,2.5726563930511475,-1.8240933418273926,-0.06561602652072906
1772456732774532600,0.40453271484375,2.2054851055145264,-1.751319169998169,-0.17418165504932404
1772456732784552400,0.414552490234375,1.670742392539978,-1.4646810293197632,-0.3556603789329529
1772456732794571500,0.424571533203125,1.1021417379379272,-1.2086801528930664,-0.5619240403175354
1772456732804591400,0.43459130859375,0.6222150921821594,-1.008374571800232,-0.7288925647735596
1772456732814610400,0.4446103515625,0.28110063076019287,-0.676561176776886,-0.8432723879814148
1772456732824630500,0.454630615234375,0.05965027958154678,-0.30522221326828003,-0.8711556792259216
1772456732834649600,0.464649658203125,-0.09968424588441849,0.09329532831907272,-0.8347659707069397
1772456732844669700,0.474669677734375,-0.18660902976989746,0.47036856412887573,-0.7511778473854065
1772456732854688500,0.4846884765625,-0.22772423923015594,0.8169355988502502,-0.625752329826355
1772456732864708400,0.494708251953125,-0.2775346636772156,1.1309508085250854,-0.4609606862068176
1772456732874727400,0.5047275390625,-0.4135550856590271,1.5009913444519043,-0.30330023169517517
1772456732884747500,0.51474755859375,-0.548575222492218,1.7428812980651855,-0.170841246843338
1772456732894766600,0.5247666015625,-0.5449317693710327,1.6845979690551758,-0.07192105799913406
1772456732904786700,0.53478662109375,-0.4037155210971832,1.472758173942566,-0.0070677632465958595
1772456732914805500,0.544805419921875,-0.24472053349018097,1.204290509223938,0.0684477686882019
1772456732924825300,0.554825439453125,-0.1462341696023941,0.9968568682670593,0.19107700884342194
1772456732934844400,0.564844482421875,-0.10426914691925049,0.95257568359375,0.33579450845718384
1772456732944864500,0.574864501953125,-0.0810791403055191,0.979170560836792,0.46196603775024414
1772456732954883600,0.584883544921875,-0.06769675761461258,0.9614027142524719,0.5332133173942566
1772456732964903700,0.594903564453125,-0.02376498468220234,0.9209727644920349,0.5505313277244568
1772456732974922500,0.604922607421875,0.11040773242712021,1.0291978120803833,0.5721609592437744
1772456732984942300,0.6149423828125,0.3609859049320221,1.266146183013916,0.6415352821350098
1772456732994961400,0.62496142578125,0.6902524828910828,1.4552923440933228,0.7367019653320312
1772456733004981500,0.6349814453125,1.0014164447784424,1.315199375152588,0.8211532235145569
1772456733015000600,0.64500048828125,1.2357797622680664,0.8110159039497375,1.005899429321289
1772456733025020700,0.655020751953125,1.2961602210998535,0.4227432608604431,1.312268853187561
1772456733035039500,0.66503955078125,1.1812344789505005,0.27574050426483154,1.659333348274231
1772456733045059300,0.675059326171875,0.8971896767616272,0.25850504636764526,1.8799850940704346
1772456733055078400,0.685078369140625,0.4202097952365875,0.40962374210357666,1.7950326204299927
1772456733065098500,0.695098388671875,0.05915573239326477,0.2150164395570755,1.5051305294036865
1772456733075117600,0.70511767578125,-0.17402905225753784,-0.1557704210281372,0.9379570484161377
1772456733085137700,0.7151376953125,-0.37148141860961914,-0.2962268590927124,0.45778459310531616
1772456733095157500,0.725157470703125,-0.5948598980903625,-0.3022807538509369,0.09064122289419174
1772456733105176600,0.735176513671875,-0.8504730463027954,-0.22110389173030853,-0.19848592579364777
1772456733115196400,0.745196533203125,-1.0438984632492065,-0.11380699276924133,-0.47517824172973633
1772456733125215500,0.755215576171875,-1.0519193410873413,0.07831291109323502,-0.7824937105178833
1772456733135235600,0.765235595703125,-0.8357995748519897,0.3297094702720642,-1.0896480083465576
1772456733145254400,0.77525439453125,-0.4473061263561249,0.5224653482437134,-1.325848937034607
1772456733155274500,0.7852744140625,-0.011490740813314915,0.47410550713539124,-1.466696858406067
1772456733165293600,0.79529345703125,0.372020423412323,0.09839235246181488,-1.5016177892684937
1772456733175313400,0.8053134765625,0.7101337909698486,-0.506432831287384,-1.4261558055877686
1772456733185332500,0.81533251953125,0.9679812788963318,-1.0795091390609741,-1.251976728439331
1772456733195352600,0.8253525390625,1.0925434827804565,-1.3697617053985596,-1.0360844135284424
1772456733205371400,0.835371337890625,1.0747575759887695,-1.3674296140670776,-0.8494828939437866
1772456733215391500,0.8453916015625,0.9846801161766052,-1.1227165460586548,-0.740007758140564
1772456733225410600,0.85541064453125,0.9210763573646545,-0.7377768158912659,-0.7096565365791321
1772456733235430400,0.865430419921875,0.9347796440124512,-0.3328477442264557,-0.7325160503387451
1772456733245449500,0.875449462890625,1.0312790870666504,0.02924656867980957,-0.7475317120552063
1772456733255469600,0.885469482421875,1.1955822706222534,0.25690823793411255,-0.7049813270568848
1772456733265488400,0.89548828125,1.3760648965835571,0.327936589717865,-0.5765203237533569
1772456733275508500,0.905508544921875,1.4790054559707642,0.29381775856018066,-0.35299375653266907
1772456733285527600,0.915527587890625,1.4755421876907349,0.24235084652900696,-0.0514080636203289
1772456733295547400,0.92554736328125,1.3372392654418945,0.2863742411136627,0.2782212495803833
1772456733305566500,0.93556640625,1.0824114084243774,0.4132765233516693,0.5542616248130798
1772456733315586600,0.945586669921875,0.7780765891075134,0.5181273221969604,0.7465671300888062
1772456733325605400,0.95560546875,0.5263221263885498,0.5184103846549988,0.8434334993362427
1772456733335625500,0.96562548828125,0.4307657778263092,0.3637310862541199,0.8643366694450378
1772456733345644500,0.97564453125,0.5345726013183594,0.0916774570941925,0.8332673907279968
1772456733355664400,0.985664306640625,0.7933884263038635,-0.21291492879390717,0.7794369459152222
1772456733365683500,0.995683349609375,1.0672080516815186,-0.4485924243927002,0.7574384212493896
1772456733375703600,1.00570361328125,1.1846624612808228,-0.5477086305618286,0.7857251763343811
1772456733385722400,1.015722412109375,1.0939985513687134,-0.48870763182640076,0.8458932042121887
1772456733395742200,1.0257421875,0.8656263947486877,-0.28190597891807556,0.911927342414856
1772456733405761300,1.03576123046875,0.6341024041175842,0.004593420308083296,0.9582474231719971
1772456733415781400,1.045781494140625,0.5106542110443115,0.17932234704494476,0.996426522731781
1772456733425800400,1.055800537109375,0.4984521269798279,0.11287994682788849,1.0285205841064453
1772456733435820300,1.0658203125,0.43402254581451416,-0.25634655356407166,1.0190290212631226
1772456733445839000,1.075839111328125,0.19586937129497528,-0.7783879041671753,0.9561640620231628
1772456733455859200,1.085859130859375,-0.19564592838287354,-0.8982996940612793,0.9317396283149719
1772456733465878300,1.095878173828125,-0.5630287528038025,-0.37399038672447205,0.9862300753593445
1772456733475898400,1.1058984375,-0.7985944151878357,0.552158534526825,1.0423316955566406
1772456733485917400,1.11591748046875,-0.9270777702331543,1.3769999742507935,0.9971295595169067
1772456733495937300,1.125937255859375,-1.00627863407135,1.8109889030456543,0.8102071285247803
1772456733505956000,1.1359560546875,-1.0856562852859497,1.919778823852539,0.5507747530937195
1772456733515976200,1.14597607421875,-1.1483122110366821,1.875043511390686,0.2829906940460205
1772456733525995300,1.155995361328125,-1.1324173212051392,1.6904319524765015,0.012606073170900345
1772456733536015400,1.166015380859375,-1.0451027154922485,1.3418488502502441,-0.2475362867116928
1772456733546034400,1.176034423828125,-0.9382915496826172,0.8983798623085022,-0.517493724822998
1772456733556054300,1.18605419921875,-0.843782365322113,0.45458853244781494,-0.7876796722412109
1772456733566074400,1.196074462890625,-0.740667998790741,0.08718869835138321,-1.0439183712005615
1772456733576093200,1.20609326171875,-0.6726915836334229,-0.1813623309135437,-1.2825690507888794
1772456733586113300,1.21611328125,-0.6730079650878906,-0.38558152318000793,-1.4624967575073242
1772456733596132400,1.22613232421875,-0.7036620378494263,-0.5336623191833496,-1.5225368738174438
1772456733606152200,1.236152099609375,-0.6667934656143188,-0.7128696441650391,-1.4667301177978516
1772456733616171300,1.246171142578125,-0.5432015061378479,-1.0171650648117065,-1.3485339879989624
1772456733626191400,1.25619140625,-0.3930215835571289,-1.3937102556228638,-1.1961013078689575
1772456733636210200,1.266210205078125,-0.16786037385463715,-1.6347577571868896,-0.9710492491722107
1772456733646230300,1.276230224609375,0.13048210740089417,-1.664565920829773,-0.6443395614624023
1772456733656249300,1.286249267578125,0.3900098204612732,-1.531312346458435,-0.23887835443019867
1772456733666269200,1.296269287109375,0.5358163118362427,-1.307701826095581,0.17497633397579193
1772456733676288300,1.306288330078125,0.5700757503509521,-1.016388177871704,0.5488879084587097
1772456733686308400,1.316308349609375,0.5402880311012268,-0.6896181106567383,0.8487659692764282
1772456733696327200,1.3263271484375,0.4486454427242279,-0.3884601294994354,1.037235140800476
1772456733706347300,1.33634716796875,0.3387753963470459,-0.16963057219982147,1.0946465730667114
1772456733716366300,1.346366455078125,0.24617941677570343,-0.018664231523871422,1.0359870195388794
1772456733726386400,1.356386474609375,0.18144728243350983,0.06800221651792526,0.9121459722518921
1772456733736405200,1.3664052734375,0.15963493287563324,0.19567708671092987,0.7635780572891235
1772456733746425300,1.37642529296875,0.14151717722415924,0.3904159367084503,0.6169918179512024
1772456733756444200,1.386444091796875,0.135443314909935,0.6348819136619568,0.4625929296016693
1772456733766464300,1.39646435546875,0.16243205964565277,0.8366573452949524,0.32129785418510437
1772456733776483300,1.4064833984375,0.23506763577461243,0.9546247124671936,0.20495714247226715
1772456733786503400,1.41650341796875,0.32521137595176697,0.9781191349029541,0.1329633742570877
1772456733796522500,1.4265224609375,0.4146704375743866,0.8906968832015991,0.12395017594099045
1772456733806542300,1.436542236328125,0.49348029494285583,0.7361350059509277,0.1791391223669052
1772456733816561200,1.44656103515625,0.5418262481689453,0.5961587429046631,0.291959673166275
1772456733826581200,1.456581298828125,0.530573844909668,0.4643956422805786,0.4521123468875885
1772456733836600300,1.466600341796875,0.415240079164505,0.27635088562965393,0.6192635297775269
1772456733846620400,1.476620361328125,0.20121780037879944,-0.0031491878908127546,0.7578485608100891
1772456733856639500,1.486639404296875,0.0049646650440990925,-0.23853427171707153,0.8466391563415527
1772456733866659000,1.4966591796875,-0.07357967644929886,-0.34768393635749817,0.8636684417724609
1772456733876678100,1.50667822265625,0.034147050231695175,-0.33301469683647156,0.8146138191223145
1772456733886698200,1.5166982421875,0.25357794761657715,-0.2647126317024231,0.8264790177345276
1772456733896717300,1.52671728515625,0.3398696780204773,-0.22096434235572815,0.9488155841827393
1772456733906737400,1.5367373046875,0.021460816264152527,-0.20268014073371887,1.032754898071289
1772456733916756500,1.546756591796875,-0.61111980676651,-0.2450968325138092,0.916419267654419
1772456733926776000,1.556776123046875,-1.122637391090393,-0.2946279048919678,0.651911735534668
1772456733936795100,1.566795166015625,-1.2881627082824707,-0.37962400913238525,0.382779061794281
1772456733946815200,1.576815185546875,-1.2109127044677734,-0.5045475959777832,0.20065267384052277
1772456733956834300,1.586834228515625,-1.0963903665542603,-0.7770832180976868,0.0070070428773760796
1772456733966854400,1.5968544921875,-0.9779527187347412,-1.0477274656295776,-0.2749015986919403
1772456733976873500,1.60687353515625,-0.7731060981750488,-1.1386624574661255,-0.6094431281089783
1772456733986893000,1.61689306640625,-0.47437289357185364,-0.977008581161499,-0.9736903309822083
1772456733996912000,1.626912109375,-0.12270621210336685,-0.6351585984230042,-1.3065303564071655
1772456734006932200,1.63693212890625,0.2054210603237152,-0.3154279887676239,-1.4948294162750244
1772456734016951300,1.646951416015625,0.4230165183544159,-0.07030825316905975,-1.4776666164398193
1772456734026971400,1.656971435546875,0.47329139709472656,-0.007155381143093109,-1.3577876091003418
1772456734036990200,1.666990234375,0.36647626757621765,-0.23782160878181458,-1.25276780128479
1772456734047010300,1.67701025390625,0.17913885414600372,-0.6429118514060974,-1.1676057577133179
1772456734057029000,1.687029052734375,0.0117940753698349,-0.9369189739227295,-1.0725042819976807
1772456734067049200,1.69704931640625,-0.11101626604795456,-1.0485291481018066,-0.9512526392936707
1772456734077068300,1.707068359375,-0.21404224634170532,-0.9289124608039856,-0.7922243475914001
1772456734087088400,1.71708837890625,-0.34113627672195435,-0.5649137496948242,-0.605584442615509
1772456734097107200,1.727107177734375,-0.4659373462200165,-0.0927152931690216,-0.40826311707496643
1772456734107127300,1.737127197265625,-0.5550584197044373,0.3614671230316162,-0.2206631302833557
1772456734117146400,1.747146484375,-0.5716539025306702,0.756283164024353,-0.05360570549964905
1772456734127166200,1.757166259765625,-0.5318937301635742,1.0406312942504883,0.09618272632360458
1772456734137185300,1.767185302734375,-0.5114188194274902,1.172764539718628,0.22707629203796387
1772456734147205400,1.777205322265625,-0.5330588817596436,1.1526989936828613,0.32162144780158997
1772456734157224200,1.78722412109375,-0.5842956900596619,1.0174294710159302,0.3540606200695038
1772456734167244300,1.797244384765625,-0.5994983315467834,0.8401625752449036,0.31978997588157654
1772456734177263400,1.807263427734375,-0.5235066413879395,0.664385974407196,0.23394031822681427
1772456734187283200,1.817283203125,-0.34610575437545776,0.4984625279903412,0.12451449781656265
1772456734197302300,1.82730224609375,-0.08377585560083389,0.32453787326812744,0.03050304763019085
1772456734207322400,1.837322265625,0.23173309862613678,0.11871360242366791,0.022243520244956017
1772456734217341200,1.847341064453125,0.5915130972862244,-0.09278879314661026,0.11163251847028732
1772456734227361300,1.857361328125,0.8823137879371643,-0.19201204180717468,0.2882443070411682
1772456734237380400,1.86738037109375,1.0498980283737183,-0.1828390508890152,0.5374829173088074
1772456734247400200,1.877400146484375,1.164334774017334,-0.08500464260578156,0.8446292281150818
1772456734257419300,1.887419189453125,1.2409001588821411,-0.02959597483277321,1.112529993057251
1772456734267439400,1.897439453125,1.2272943258285522,0.06532946974039078,1.3564413785934448
1772456734277458200,1.907458251953125,1.0732618570327759,0.3243011236190796,1.681524634361267
1772456734287478300,1.917478271484375,0.7147200107574463,0.2900025248527527,1.9314179420471191
1772456734297497300,1.927497314453125,0.1839543879032135,-0.5441333651542664,1.7872183322906494
1772456734307517200,1.93751708984375,-0.17674760520458221,-1.2848598957061768,1.2493274211883545
1772456734317536300,1.947536376953125,-0.3025393486022949,-1.0256693363189697,0.686881959438324
1772456734327556400,1.957556396484375,-0.4107811450958252,-0.433472603559494,0.23282232880592346
1772456734337575200,1.9675751953125,-0.628227949142456,0.09850500524044037,-0.024045681580901146
1772456734347595300,1.97759521484375,-0.8861993551254272,0.5169113278388977,-0.06549032777547836
1772456734357614300,1.9876142578125,-1.062111496925354,0.7132552266120911,-0.03665575012564659
1772456734367634200,1.99763427734375,-1.1720659732818604,0.5532107353210449,-0.049309760332107544
1772456734377653200,2.0076533203125,-1.198622226715088,0.08281844854354858,-0.19662810862064362
1772456734387673300,2.01767333984375,-1.0913405418395996,-0.44731971621513367,-0.45476511120796204
1772456734397691600,2.027691650390625,-0.9148714542388916,-0.807479202747345,-0.733122706413269
1772456734407711700,2.037711669921875,-0.80545973777771,-1.0598111152648926,-0.9839046001434326
1772456734417730600,2.04773046875,-0.7781104445457458,-1.1115286350250244,-1.150788426399231
1772456734427750700,2.057750732421875,-0.7963850498199463,-0.9248167872428894,-1.215640902519226
1772456734437769700,2.067769775390625,-0.8240571618080139,-0.5785533785820007,-1.2279590368270874
1772456734447789600,2.07778955078125,-0.8106989860534668,-0.25153422355651855,-1.21992826461792
1772456734457808600,2.08780859375,-0.7118536233901978,-0.13274499773979187,-1.2003027200698853
1772456734467828700,2.097828857421875,-0.4993562698364258,-0.36004072427749634,-1.1763252019882202
1772456734477847600,2.10784765625,-0.25504347681999207,-0.7549116015434265,-1.1076747179031372
1772456734487867600,2.11786767578125,-0.10580925643444061,-1.0280745029449463,-0.9650382399559021
1772456734497886700,2.12788671875,-0.06793218106031418,-1.057082176208496,-0.7770786881446838
1772456734507906600,2.137906494140625,-0.07166992872953415,-0.8937243819236755,-0.6383312344551086
1772456734517925600,2.147925537109375,-0.06712763756513596,-0.602973997592926,-0.5859739780426025
1772456734527945700,2.15794580078125,-0.045825280249118805,-0.24093352258205414,-0.5867308974266052
1772456734537964500,2.167964599609375,-0.015624233521521091,0.15759095549583435,-0.5720009207725525
1772456734547984600,2.177984619140625,0.03628157451748848,0.5022346377372742,-0.5203918218612671
1772456734558003700,2.188003662109375,0.11215290427207947,0.7293511629104614,-0.3970451056957245
1772456734568023800,2.19802392578125,0.1770823746919632,0.8548606038093567,-0.22546614706516266
1772456734578042600,2.208042724609375,0.21708065271377563,0.8651310801506042,-0.035047467797994614
1772456734588062700,2.218062744140625,0.2300529032945633,0.7791978120803833,0.15399062633514404
1772456734598081500,2.22808154296875,0.2568903863430023,0.6484363079071045,0.31225723028182983
1772456734608101600,2.2381015625,0.3424910306930542,0.5780476331710815,0.4030049741268158
1772456734618120700,2.24812060546875,0.4304986596107483,0.47018906474113464,0.46667158603668213
1772456734628140800,2.258140869140625,0.5383713245391846,0.2524847090244293,0.5157719850540161
1772456734638160000,2.268159912109375,0.6440540552139282,0.06606237590312958,0.5425758957862854
1772456734648179700,2.2781796875,0.7554551959037781,-0.0036373452749103308,0.5644513964653015
1772456734658198500,2.288198486328125,0.8586990237236023,-0.02527126856148243,0.6051900386810303
1772456734668218600,2.298218505859375,0.9482858777046204,-0.04315359517931938,0.6808674931526184
1772456734678237700,2.30823779296875,1.0059260129928589,-0.10677304863929749,0.7777343988418579
1772456734688257800,2.3182578125,0.995455265045166,-0.30269116163253784,0.8365617394447327
1772456734698276900,2.32827685546875,0.9025365114212036,-0.5235438942909241,0.7920984029769897
1772456734708296400,2.33829638671875,0.7706940174102783,-0.6809849143028259,0.7508164644241333
1772456734718315500,2.3483154296875,0.6499212980270386,-0.5906568765640259,0.741338312625885
1772456734728335600,2.358335693359375,0.4932211637496948,-0.43053513765335083,0.8162687420845032
1772456734738354700,2.368354736328125,0.16541852056980133,-0.32342973351478577,0.9495836496353149
1772456734748373800,2.378373779296875,-0.38228318095207214,-0.19420570135116577,1.0729202032089233
1772456734758393900,2.388393798828125,-0.937471866607666,-0.09214670211076736,1.0515384674072266
1772456734768413400,2.398413330078125,-1.3000329732894897,-0.14318965375423431,0.7937064170837402
1772456734778432500,2.4084326171875,-1.4359521865844727,-0.36219149827957153,0.33397984504699707
1772456734788451600,2.41845166015625,-1.4678007364273071,-0.6760061383247375,-0.23453021049499512
1772456734798471700,2.4284716796875,-1.4684300422668457,-0.7552434802055359,-0.7782105803489685
1772456734808490800,2.43849072265625,-1.4398279190063477,-0.4333868622779846,-1.1897168159484863
1772456734818510800,2.4485107421875,-1.3554952144622803,0.15368570387363434,-1.4338486194610596
1772456734828529700,2.45852978515625,-1.2112493515014648,0.7785109281539917,-1.5303958654403687
1772456734838549500,2.468549560546875,-1.0267183780670166,1.2519406080245972,-1.5261489152908325
1772456734848568600,2.478568603515625,-0.8160639405250549,1.5762722492218018,-1.4502826929092407
1772456734858588700,2.488588623046875,-0.5719966888427734,1.6640921831130981,-1.309410810470581
1772456734868607700,2.498607666015625,-0.2660828232765198,1.41596257686615,-1.1450090408325195
1772456734878627600,2.508627685546875,0.029860427603125572,0.9016075730323792,-0.9528787732124329
1772456734888646700,2.518646728515625,0.23488149046897888,0.29727402329444885,-0.7587947845458984
1772456734898666500,2.52866650390625,0.2917114794254303,-0.28820809721946716,-0.6234143376350403
1772456734908685600,2.538685546875,0.24444036185741425,-0.7433460354804993,-0.5965542197227478
1772456734918705700,2.54870556640625,0.1553477793931961,-0.8750044703483582,-0.604536771774292
1772456734928724700,2.558724853515625,0.07021450996398926,-0.6361585855484009,-0.6044888496398926
1772456734938744600,2.56874462890625,0.05975600704550743,-0.16062615811824799,-0.5834802389144897
1772456734948763600,2.578763671875,0.09680856764316559,0.3554113507270813,-0.5520527958869934
1772456734958783700,2.58878369140625,0.15058179199695587,0.704818606376648,-0.5005829334259033
1772456734968802800,2.598802734375,0.18595948815345764,0.8551825881004333,-0.42167505621910095
1772456734978822700,2.60882275390625,0.17612682282924652,0.8468623161315918,-0.30050337314605713
1772456734988841700,2.618841796875,0.11567040532827377,0.729090690612793,-0.15385214984416962
1772456734998861600,2.628861572265625,0.022274944931268692,0.597592830657959,-0.003581951605156064
1772456735008880600,2.638880615234375,-0.07111971825361252,0.4750024676322937,0.14683178067207336
1772456735018900700,2.648900634765625,-0.13827691972255707,0.3310069441795349,0.3029681146144867
1772456735028919800,2.658919921875,-0.14411430060863495,0.25064632296562195,0.44415003061294556
1772456735038939600,2.668939697265625,-0.13152474164962769,0.26998087763786316,0.5922843813896179
1772456735048958500,2.67895849609375,-0.05618683993816376,0.28526076674461365,0.7415284514427185
1772456735058978600,2.688978515625,0.10295061767101288,0.2756233215332031,0.8780399560928345
1772456735068997600,2.69899755859375,0.33825182914733887,0.27887582778930664,1.0003786087036133
1772456735079017700,2.709017822265625,0.630094051361084,0.20991940796375275,1.1243239641189575
1772456735089036800,2.719036865234375,0.9252034425735474,0.013669473119080067,1.2268333435058594
1772456735099056600,2.729056640625,1.1669445037841797,-0.35967934131622314,1.287595272064209
1772456735109075500,2.739075439453125,1.277065634727478,-0.9105547666549683,1.2755622863769531
1772456735119095600,2.749095458984375,1.2188150882720947,-1.5153048038482666,1.2247790098190308
1772456735129114600,2.759114501953125,1.0389143228530884,-1.9111714363098145,1.181728482246399
1772456735139134700,2.769134765625,0.8375436663627625,-1.880577564239502,1.1301307678222656
1772456735149153800,2.77915380859375,0.701002299785614,-1.4748485088348389,1.0287418365478516
1772456735159173600,2.789173583984375,0.5754619836807251,-0.8385737538337708,0.8139280676841736
1772456735169192400,2.7991923828125,0.2629525363445282,-0.04115995392203331,0.5864024758338928
1772456735179212500,2.809212646484375,-0.07849027961492538,0.41857674717903137,0.2932971119880676
1772456735189231600,2.819231689453125,-0.2757343649864197,0.5935895442962646,0.03928721696138382
1772456735199251700,2.829251708984375,-0.34140685200691223,0.4634147882461548,-0.0999084860086441
1772456735209270800,2.839270751953125,-0.3794304132461548,0.0014474280178546906,-0.1548503041267395
1772456735219290600,2.84929052734375,-0.42636197805404663,-0.5542991757392883,-0.18786683678627014
1772456735229309400,2.859309326171875,-0.47001808881759644,-0.9586972594261169,-0.2609138786792755
1772456735239329500,2.86932958984375,-0.45677927136421204,-1.0918833017349243,-0.4255952537059784
1772456735249348600,2.8793486328125,-0.38559243083000183,-0.9521682262420654,-0.7071358561515808
1772456735259368700,2.88936865234375,-0.2983770966529846,-0.5636013150215149,-1.0790082216262817
1772456735269387800,2.8993876953125,-0.1733912229537964,-0.040833450853824615,-1.471724271774292
1772456735279406600,2.909406494140625,-0.06115896254777908,0.4687989056110382,-1.7610464096069336
1772456735289426700,2.9194267578125,0.02660231664776802,0.7528356909751892,-1.8863060474395752
1772456735299446500,2.929446533203125,0.13298122584819794,0.7262096405029297,-1.846178650856018
1772456735309465600,2.939465576171875,0.26243799924850464,0.3447267711162567,-1.677856206893921
1772456735319484700,2.949484619140625,0.35476475954055786,-0.16265389323234558,-1.3945118188858032
1772456735329504800,2.9595048828125,0.38191089034080505,-0.5430824756622314,-1.0498290061950684
1772456735339523600,2.969523681640625,0.34578269720077515,-0.615897536277771,-0.6820869445800781
1772456735349543700,2.979543701171875,0.2651174068450928,-0.3684816360473633,-0.316281259059906
1772456735359562800,2.989562744140625,0.18229763209819794,0.027850540354847908,0.00634817685931921
1772456735369582600,2.99958251953125,0.10128933936357498,0.4249286651611328,0.27173617482185364
1772456735379601700,3.0096015625,0.042034268379211426,0.7470569014549255,0.48818299174308777
1772456735389621800,3.019621826171875,0.0035004590172320604,0.9623686671257019,0.6500523090362549
1772456735399641600,3.0296416015625,0.008047007024288177,1.0856751203536987,0.7314920425415039
1772456735409661400,3.039661376953125,0.010697918012738228,1.1264923810958862,0.7736102342605591
1772456735419680500,3.049680419921875,-0.002491120947524905,0.9916208386421204,0.7866578102111816
1772456735429700600,3.05970068359375,-0.033058617264032364,0.7303311824798584,0.7578879594802856
1772456735439719400,3.069719482421875,-0.08837992697954178,0.523988664150238,0.7180526852607727
1772456735449739500,3.079739501953125,-0.15290512144565582,0.4220481812953949,0.6775294542312622
1772456735459758600,3.089758544921875,-0.17430442571640015,0.4006028175354004,0.6222550272941589
1772456735469778400,3.0997783203125,-0.1416468769311905,0.3974035382270813,0.5504503846168518
1772456735479797500,3.109797607421875,-0.048161137849092484,0.40508437156677246,0.47112730145454407
1772456735489817600,3.119817626953125,0.0947350338101387,0.4519493579864502,0.4129902422428131
1772456735499836400,3.12983642578125,0.26687297224998474,0.5141309499740601,0.41035982966423035
1772456735509856500,3.1398564453125,0.43269363045692444,0.4816531836986542,0.46903538703918457
1772456735519875600,3.14987548828125,0.563452959060669,0.26508599519729614,0.5868808031082153
1772456735529895400,3.1598955078125,0.630391001701355,-0.056891243904829025,0.7501488327980042
1772456735539914500,3.16991455078125,0.6138887405395508,-0.3537253141403198,0.8696438074111938
1772456735549934600,3.1799345703125,0.5015859007835388,-0.4454256594181061,0.8761001229286194
1772456735559953400,3.189953369140625,0.48772040009498596,-0.47129136323928833,0.8836613297462463
1772456735569973500,3.199973388671875,0.5572760701179504,-0.3527623116970062,0.8946093320846558
1772456735579992600,3.20999267578125,0.6218382716178894,-0.4136104881763458,0.9924077987670898
1772456735590012700,3.2200126953125,0.4869358241558075,-0.5661555528640747,1.1693077087402344
1772456735600031500,3.230031494140625,0.17192621529102325,-0.42124977707862854,1.3622593879699707
1772456735610051600,3.240051513671875,-0.12724822759628296,0.06433291733264923,1.3698453903198242
1772456735620070400,3.2500703125,-0.31845760345458984,0.4730543792247772,1.0666167736053467
1772456735630090500,3.260090576171875,-0.4974827468395233,0.4296376407146454,0.5381612181663513
1772456735640109600,3.270109619140625,-0.722893476486206,0.006714628078043461,-0.05994349345564842
1772456735650129700,3.280129638671875,-0.8914740085601807,-0.3723336160182953,-0.6205623149871826
1772456735660148700,3.290148681640625,-0.901609480381012,-0.506220817565918,-1.0674303770065308
1772456735670168600,3.30016845703125,-0.7000574469566345,-0.4985208511352539,-1.3399341106414795
1772456735680187400,3.3101875,-0.4136618971824646,-0.48068007826805115,-1.4334467649459839
1772456735690206500,3.32020654296875,-0.21548116207122803,-0.4666534662246704,-1.4273626804351807
1772456735700226600,3.3302265625,-0.1067858338356018,-0.4199216365814209,-1.3669071197509766
1772456735710245600,3.34024560546875,-0.041318945586681366,-0.37815314531326294,-1.2558977603912354
1772456735720265700,3.350265625,-0.02473091334104538,-0.3195396363735199,-1.1030528545379639
1772456735730284500,3.360284423828125,-0.04114716872572899,-0.2932180166244507,-0.9417738914489746
1772456735740304400,3.370304443359375,-0.08609653264284134,-0.27673837542533875,-0.7868950963020325
1772456735750323500,3.380323486328125,-0.15388436615467072,-0.29509982466697693,-0.6685985922813416
1772456735760343600,3.390343505859375,-0.22237715125083923,-0.3275509774684906,-0.6133518218994141
1772456735770362600,3.400362548828125,-0.2612222731113434,-0.30598869919776917,-0.5890680551528931
1772456735780382700,3.4103828125,-0.27755358815193176,-0.20827943086624146,-0.5678759813308716
1772456735790401500,3.420401611328125,-0.29870733618736267,-0.10418658703565598,-0.5346466302871704
1772456735800421400,3.43042138671875,-0.3059740364551544,-0.023143403232097626,-0.4680979549884796
1772456735810440400,3.4404404296875,-0.28573986887931824,0.05720603093504906,-0.36918628215789795
1772456735820460500,3.45046044921875,-0.24172261357307434,0.10688916593790054,-0.24927400052547455
1772456735830479600,3.460479736328125,-0.17923393845558167,0.11642035096883774,-0.12365137040615082
1772456735840499700,3.470499755859375,-0.12184760719537735,0.1044425219297409,0.0046160570345819
1772456735850518500,3.4805185546875,-0.08484618365764618,0.07881838083267212,0.10253410041332245
1772456735860538400,3.490538330078125,-0.04791479557752609,0.04923092946410179,0.14684216678142548
1772456735870557400,3.500557373046875,-0.054001983255147934,0.010656372644007206,0.1200273409485817
1772456735880577500,3.51057763671875,-0.11511007696390152,-0.06507247686386108,0.018068483099341393
1772456735890596600,3.5205966796875,-0.21753552556037903,-0.12931591272354126,-0.10793925076723099
1772456735900616700,3.53061669921875,-0.310302197933197,-0.10159160196781158,-0.2146129608154297
1772456735910635500,3.540635498046875,-0.3354930579662323,0.03437182307243347,-0.27727633714675903
1772456735920655600,3.550655517578125,-0.21900904178619385,0.24958400428295135,-0.282466858625412
1772456735930674400,3.56067431640625,0.10415676236152649,0.60124671459198,-0.19862255454063416
1772456735940694500,3.570694580078125,0.5358112454414368,0.9543216824531555,-0.010409231297671795
1772456735950713600,3.580713623046875,0.8655127286911011,1.0474255084991455,0.26466548442840576
1772456735960733400,3.5907333984375,0.9670544862747192,0.747024416923523,0.6161696910858154
1772456735970752500,3.60075244140625,0.854770839214325,0.16479507088661194,1.04342520236969
1772456735980772600,3.610772705078125,0.5988045930862427,-0.46070823073387146,1.4960891008377075
1772456735990791700,3.620791748046875,0.2659057080745697,-0.7911684513092041,1.8257197141647339
1772456736000810500,3.630810546875,0.01594807393848896,-0.7109803557395935,1.8885191679000854
1772456736010830600,3.64083056640625,-0.2357046753168106,-0.1423315852880478,1.5380381345748901
1772456736020849400,3.650849365234375,-0.5462825298309326,0.7360545992851257,0.8873983025550842
1772456736030869500,3.660869384765625,-0.7713015079498291,1.4324344396591187,0.15903200209140778
1772456736040888600,3.670888671875,-0.7718850374221802,1.4453097581863403,-0.4310464560985565
1772456736050908700,3.68090869140625,-0.6446352005004883,0.7824851870536804,-0.6796562671661377
1772456736060927700,3.690927734375,-0.5623773336410522,0.04815634340047836,-0.5613831877708435
1772456736070947600,3.700947509765625,-0.5705590844154358,-0.4430650472640991,-0.2702658474445343
1772456736080966400,3.71096630859375,-0.53497713804245,-0.6664549708366394,0.033305227756500244
1772456736090986500,3.720986572265625,-0.43792062997817993,-0.9259137511253357,0.25210973620414734
1772456736101005600,3.731005615234375,-0.397834450006485,-1.2864439487457275,0.27363473176956177
1772456736111025700,3.741025634765625,-0.46593815088272095,-1.599627137184143,0.07321775704622269
1772456736121044700,3.751044677734375,-0.5332537889480591,-1.7439957857131958,-0.2382437288761139
1772456736131064300,3.761064208984375,-0.47729066014289856,-1.9127211570739746,-0.6736769676208496
1772456736141083400,3.77108349609375,-0.3600420653820038,-2.2045133113861084,-1.2691872119903564
1772456736151103500,3.781103515625,-0.2680402398109436,-2.4035074710845947,-1.8741322755813599
1772456736161122600,3.79112255859375,-0.234669491648674,-2.172780752182007,-2.2367124557495117
1772456736171142700,3.801142578125,-0.2406751960515976,-1.5800135135650635,-2.262831211090088
1772456736181161700,3.81116162109375,-0.26667457818984985,-0.6494592428207397,-2.0105769634246826
1772456736191181300,3.821181396484375,-0.24366086721420288,0.3964909017086029,-1.5649535655975342
1772456736201200400,3.831200439453125,-0.15219245851039886,1.2648601531982422,-1.0528801679611206
1772456736211220500,3.841220458984375,0.0022082931827753782,1.7059732675552368,-0.5697646737098694
1772456736221239600,3.851239501953125,0.17931915819644928,1.620399832725525,-0.1762314885854721
1772456736231259600,3.861259765625,0.3384283781051636,1.1817021369934082,0.15388835966587067
1772456736241278700,3.87127880859375,0.45363059639930725,0.6756884455680847,0.4246807098388672
1772456736251298300,3.88129833984375,0.5579397082328796,0.2538732886314392,0.5937222242355347
1772456736261317400,3.8913173828125,0.6644901037216187,-0.12831509113311768,0.7092442512512207
1772456736271336400,3.90133642578125,0.7590331435203552,-0.47548744082450867,0.7383006811141968
1772456736281356500,3.9113564453125,0.8794540762901306,-0.6992805600166321,0.6868388056755066
1772456736291375600,3.921375732421875,0.9534622430801392,-0.7028234004974365,0.6288037300109863
1772456736301395500,3.9313955078125,0.9395089149475098,-0.49142351746559143,0.5749495625495911
1772456736311414500,3.94141455078125,0.86111980676651,-0.06145723536610603,0.5488367676734924
1772456736321434600,3.9514345703125,0.782063364982605,0.38838475942611694,0.5343605875968933
1772456736331453400,3.961453369140625,0.7073227763175964,0.7037214040756226,0.542224109172821
1772456736341473500,3.9714736328125,0.6231000423431396,0.9238103628158569,0.5805768370628357
1772456736351492600,3.98149267578125,0.5603578686714172,1.0190540552139282,0.6569278240203857
1772456736361512400,3.991512451171875,0.5273839235305786,1.001354694366455,0.7624049782752991
1772456736371531500,4.001531494140625,0.539455771446228,0.8582742214202881,0.8508240580558777
1772456736381551600,4.011551513671875,0.589884340763092,0.49461159110069275,0.8622258305549622
1772456736391570000,4.02156982421875,0.6219250559806824,-0.06312570720911026,0.8207255005836487
1772456736401589800,4.03158984375,0.5482577681541443,-0.7181959748268127,0.7653120756149292
1772456736411608600,4.041608642578125,0.3775651454925537,-1.2241206169128418,0.7158563733100891
1772456736421628700,4.051628662109375,0.14577265083789825,-1.1572883129119873,0.7022252678871155
1772456736431647700,4.061647705078125,-0.09020339697599411,-0.36725178360939026,0.7465268969535828
1772456736441667800,4.071667724609375,-0.3887490928173065,0.7800598740577698,0.7821152806282043
1772456736451687000,4.08168701171875,-0.7275540232658386,1.752589225769043,0.7372591495513916
1772456736461706800,4.091706787109375,-0.985439658164978,2.243381977081299,0.5614145994186401
1772456736471725800,4.101725830078125,-1.0985674858093262,2.0917601585388184,0.30008846521377563
1772456736481745700,4.11174560546875,-1.1387985944747925,1.609565019607544,0.046001847833395004
1772456736491764700,4.1217646484375,-1.1748420000076294,0.8480093479156494,-0.16425898671150208
1772456736501784800,4.131784912109375,-1.2123316526412964,0.024282436817884445,-0.3626873791217804
1772456736511804000,4.141803955078125,-1.1221617460250854,-0.3787102997303009,-0.5279282927513123
1772456736521822700,4.15182275390625,-0.8546909689903259,-0.22425414621829987,-0.6230904459953308
1772456736531842800,4.1618427734375,-0.5092845559120178,0.05592238903045654,-0.6373977661132812
1772456736541862000,4.17186181640625,-0.2620025873184204,0.0953182652592659,-0.5690605044364929
1772456736551881700,4.1818818359375,-0.15514405071735382,-0.003349723992869258,-0.37325242161750793
1772456736561900800,4.19190087890625,-0.13173885643482208,-0.1846579909324646,-0.15809589624404907
1772456736571921000,4.2019208984375,-0.16298173367977142,-0.4876021444797516,-0.06978227943181992
1772456736581939700,4.211939697265625,-0.17331106960773468,-0.8103184103965759,-0.20608685910701752
1772456736591959800,4.221959716796875,-0.12277305871248245,-1.031421184539795,-0.5627642869949341
1772456736601979000,4.231978759765625,-0.014505972154438496,-1.0492444038391113,-1.0797920227050781
1772456736611998700,4.241998779296875,0.1542992889881134,-0.8747232556343079,-1.5250229835510254
1772456736622017800,4.252017822265625,0.3843522071838379,-0.5244962573051453,-1.7311776876449585
1772456736632038000,4.262037841796875,0.6059303879737854,-0.23356375098228455,-1.661199927330017
1772456736642056700,4.272056640625,0.8026219010353088,-0.27191299200057983,-1.3262819051742554
1772456736652076800,4.282076904296875,0.9660526514053345,-0.6430026888847351,-0.8031675815582275
1772456736662096000,4.292095947265625,1.0420992374420166,-1.0488319396972656,-0.1794366091489792
1772456736672115700,4.30211572265625,0.9812448620796204,-1.2237765789031982,0.438475102186203
1772456736682134800,4.312134765625,0.8238674998283386,-1.2150791883468628,0.9002757668495178
1772456736692155000,4.32215478515625,0.5363132357597351,-0.8756350874900818,1.2235409021377563
1772456736702173700,4.332173583984375,0.18350671231746674,-0.31198400259017944,1.416730284690857
1772456736712193800,4.34219384765625,-0.17371107637882233,0.346169650554657,1.4967191219329834
1772456736722212900,4.352212890625,-0.4507328271865845,0.9950464367866516,1.4967124462127686
1772456736732232000,4.36223193359375,-0.5675795674324036,1.5020180940628052,1.443226933479309
1772456736742251800,4.372251708984375,-0.5218924880027771,1.779928207397461,1.3373808860778809
1772456736752270600,4.3822705078125,-0.3199779987335205,1.6447778940200806,1.125230073928833
1772456736762290700,4.392290771484375,0.04349714517593384,1.0090932846069336,0.7562351822853088
1772456736772309800,4.402309814453125,0.4360867738723755,0.3509223461151123,0.4289367198944092
1772456736782329900,4.412329833984375,0.7830513715744019,-0.11824994534254074,0.31891754269599915
1772456736792349000,4.422348876953125,0.9680593013763428,-0.5150519013404846,0.3501494824886322
1772456736802368800,4.43236865234375,1.0034141540527344,-0.8680528402328491,0.4475351572036743
1772456736812387600,4.4423876953125,0.9507218599319458,-1.1855705976486206,0.5875159502029419
1772456736822407700,4.45240771484375,0.8757967352867126,-1.4363617897033691,0.7329618334770203
1772456736832426800,4.4624267578125,0.8226443529129028,-1.3890571594238281,0.7825304865837097
1772456736842446800,4.47244677734375,0.7316233515739441,-1.230958342552185,0.8444857001304626
1772456736852466000,4.4824658203125,0.5060573220252991,-0.8667998313903809,0.9614554643630981
1772456736862485800,4.49248583984375,0.17245300114154816,-0.5357124209403992,1.133306622505188
1772456736872504800,4.5025048828125,-0.22751279175281525,-0.21083606779575348,1.251052975654602
1772456736882524700,4.512524658203125,-0.6413145065307617,0.00971707608550787,1.1980046033859253
1772456736892543700,4.522543701171875,-0.9022952318191528,0.1046246811747551,0.9162885546684265
1772456736902563800,4.532563720703125,-1.008625864982605,0.10884019732475281,0.4737284183502197
1772456736912583000,4.5425830078125,-1.0644558668136597,-0.0352591872215271,-0.0741671696305275
1772456736922603000,4.55260302734375,-1.0941908359527588,0.013819674961268902,-0.6709320545196533
1772456736932621800,4.562621826171875,-0.9929811954498291,0.4093441069126129,-1.2410533428192139
1772456736942641000,4.572640869140625,-0.7368735074996948,0.7852644920349121,-1.722671627998352
1772456736952660700,4.58266064453125,-0.4401440918445587,0.7150595188140869,-2.100346803665161
1772456736962679800,4.5926796875,-0.20614251494407654,0.4287063479423523,-2.3267879486083984
1772456736972700000,4.602699951171875,-0.07156233489513397,0.0908697172999382,-2.396425485610962
1772456736982718700,4.61271875,0.01161777414381504,-0.2329981029033661,-2.320305347442627
1772456736992738800,4.62273876953125,0.047141678631305695,-0.44497719407081604,-2.114590883255005
1772456737002758000,4.6327578125,-0.007760717533528805,-0.5089961290359497,-1.8248666524887085
1772456737012777700,4.64277783203125,-0.15731558203697205,-0.4967719614505768,-1.49493408203125
1772456737022796800,4.652796875,-0.37045422196388245,-0.41727951169013977,-1.2050082683563232
1772456737032817000,4.66281689453125,-0.5744822025299072,-0.31377682089805603,-0.9948275685310364
1772456737042835700,4.672835693359375,-0.700546145439148,-0.22219498455524445,-0.849837601184845
1772456737052855800,4.682855712890625,-0.7285785675048828,-0.15303055942058563,-0.7363648414611816
1772456737062875000,4.692875,-0.6762163043022156,-0.10172928869724274,-0.6420465707778931
1772456737072894700,4.702894775390625,-0.5307440161705017,-0.11400220543146133,-0.5586539506912231
1772456737082913800,4.712913818359375,-0.34135547280311584,-0.16194042563438416,-0.4544524550437927
1772456737092934000,4.722933837890625,-0.20815134048461914,-0.143123596906662,-0.2943283021450043
1772456737102952700,4.73295263671875,-0.18432696163654327,-0.02882738783955574,-0.0972202941775322
1772456737112972800,4.742972900390625,-0.24455514550209045,0.13292929530143738,0.09641894698143005
1772456737122991900,4.752991943359375,-0.3400326669216156,0.29112371802330017,0.2567037045955658
1772456737133011000,4.763010986328125,-0.43804630637168884,0.40489476919174194,0.3722848892211914
1772456737143030800,4.77303076171875,-0.4975607693195343,0.46334049105644226,0.42734387516975403
1772456737153049600,4.783049560546875,-0.49145016074180603,0.4780576527118683,0.43264997005462646
1772456737163069700,4.793069580078125,-0.4027748703956604,0.4176989793777466,0.40015432238578796
1772456737173088800,4.8030888671875,-0.23675741255283356,0.30605366826057434,0.3538355827331543
1772456737183108900,4.81310888671875,-0.030818365514278412,0.16736635565757751,0.3150298595428467
1772456737193128000,4.8231279296875,0.1721390038728714,0.00680171325802803,0.29099562764167786
1772456737203147800,4.833147705078125,0.31935030221939087,-0.16254469752311707,0.28065934777259827
1772456737213166600,4.84316650390625,0.37967196106910706,-0.3580641448497772,0.2598550021648407
1772456737223186700,4.853186767578125,0.3992033302783966,-0.6046808362007141,0.23928342759609222
1772456737233205800,4.863205810546875,0.41000697016716003,-0.8245335817337036,0.255010724067688
1772456737243225900,4.873225830078125,0.3980616331100464,-0.8921824097633362,0.31145748496055603
1772456737253245000,4.883244873046875,0.34065932035446167,-0.8504685163497925,0.4319221079349518
1772456737263264800,4.8932646484375,0.2182825356721878,-0.5586047172546387,0.5784955620765686
1772456737273283800,4.903283935546875,0.07056790590286255,-0.011477957479655743,0.7656841278076172
1772456737283303700,4.9133037109375,-0.024034762755036354,0.5500831007957458,1.0385044813156128
1772456737293322800,4.92332275390625,-0.009708287194371223,0.8991848826408386,1.3592363595962524
1772456737303342800,4.9333427734375,0.07920187711715698,0.9145886301994324,1.5960811376571655
1772456737313362000,4.94336181640625,0.13539084792137146,0.8051809072494507,1.670843243598938
1772456737323380700,4.953380615234375,0.10669156163930893,0.7008315920829773,1.5650193691253662
1772456737333400800,4.96340087890625,0.012477975338697433,0.5982234477996826,1.2798534631729126
1772456737343420000,4.973419921875,-0.1047876626253128,0.43381401896476746,0.8407256007194519
1772456737353439700,4.983439697265625,-0.19221578538417816,0.30661478638648987,0.2563244700431824
1772456737363458800,4.993458740234375,-0.16208051145076752,0.27979356050491333,-0.38895681500434875
1772456737373479000,5.00347900390625,0.08479451388120651,0.26029762625694275,-0.982164204120636
1772456737383497700,5.013497802734375,0.5425658226013184,0.05620255321264267,-1.3867868185043335
1772456737393518000,5.02351806640625,1.0459421873092651,-0.32400843501091003,-1.502856969833374
1772456737403537000,5.033536865234375,1.3716344833374023,-0.7879363894462585,-1.3389370441436768
1772456737413556700,5.043556640625,1.447042465209961,-1.2563682794570923,-0.9881254434585571
1772456737423575800,5.053575927734375,1.325419306755066,-1.6037318706512451,-0.5769885182380676
1772456737433596000,5.063595947265625,1.084445595741272,-1.83432936668396,-0.2403111308813095
1772456737443615000,5.073614990234375,0.7639495730400085,-1.9795985221862793,-0.06679420918226242
1772456737453635000,5.083635009765625,0.3942255973815918,-1.918057918548584,-0.07103076577186584
1772456737463654000,5.09365380859375,0.055624112486839294,-1.5296270847320557,-0.21845324337482452
1772456737473673700,5.103673828125,-0.1560918688774109,-0.8655824661254883,-0.4370255172252655
1772456737483692800,5.11369287109375,-0.24833950400352478,-0.1189919039607048,-0.6699565052986145
1772456737493712000,5.1237119140625,-0.26885783672332764,0.5818037390708923,-0.8356704115867615
1772456737503732000,5.13373193359375,-0.29313865303993225,1.130765676498413,-0.8960956335067749
1772456737513750800,5.143750732421875,-0.33450448513031006,1.4519002437591553,-0.8472322225570679
1772456737523771000,5.15377099609375,-0.4120778441429138,1.5499379634857178,-0.7065888047218323
1772456737533790000,5.1637900390625,-0.5297589302062988,1.4666547775268555,-0.5167711973190308
1772456737543809800,5.173809814453125,-0.665517270565033,1.2905553579330444,-0.3218326270580292
1772456737553828900,5.183828857421875,-0.7868146896362305,1.101045846939087,-0.1480613648891449
1772456737563849000,5.193848876953125,-0.8580822348594666,0.9919260144233704,-0.016999490559101105
1772456737573867800,5.20386767578125,-0.8834956884384155,0.9999794363975525,0.05488588660955429
1772456737583888000,5.213887939453125,-0.8688839673995972,1.1185609102249146,0.051650144159793854
1772456737593907000,5.223906982421875,-0.793493390083313,1.2355965375900269,0.02605610154569149
1772456737603926800,5.2339267578125,-0.656385064125061,1.3191680908203125,-0.022029934450984
1772456737613945900,5.24394580078125,-0.447257399559021,1.3624881505966187,-0.060327257961034775
1772456737623966000,5.253966064453125,-0.17422133684158325,1.2894139289855957,-0.06120210513472557
1772456737633984800,5.26398486328125,0.11492764949798584,1.0621607303619385,0.00532499048858881
1772456737644004900,5.2740048828125,0.3958032727241516,0.6382920742034912,0.1618911623954773
1772456737654024000,5.28402392578125,0.6436892151832581,0.05718446150422096,0.40241214632987976
1772456737664043800,5.294043701171875,0.830410361289978,-0.6426963806152344,0.7087600827217102
1772456737674062800,5.304062744140625,0.9330613613128662,-1.4938908815383911,1.0574253797531128
1772456737684082000,5.31408203125,0.8945052027702332,-2.184696912765503,1.3642034530639648
1772456737694101800,5.324101806640625,0.5694664120674133,-1.9072339534759521,1.4696966409683228
1772456737704120800,5.334120849609375,0.32415997982025146,-1.3377641439437866,1.7118855714797974
1772456737714141000,5.344140869140625,-0.01528894156217575,-0.385913610458374,1.7831215858459473
1772456737724160000,5.354159912109375,-0.4734237492084503,0.3383293151855469,1.4665716886520386
1772456737734180000,5.36418017578125,-0.9332331418991089,1.0307711362838745,0.8654626607894897
1772456737744199000,5.374198974609375,-1.278358817100525,1.5874940156936646,0.14455212652683258
1772456737754218800,5.38421875,-1.4117323160171509,1.7808669805526733,-0.5114827156066895
1772456737764237800,5.39423779296875,-1.4130830764770508,1.3943970203399658,-1.0477285385131836
1772456737774258000,5.4042578125,-1.3721541166305542,0.8292420506477356,-1.4558454751968384
1772456737784277000,5.414277099609375,-1.133370280265808,0.6023945212364197,-1.728807806968689
1772456737794297000,5.424297119140625,-0.6491755843162537,0.5385262966156006,-1.7427995204925537
1772456737804316000,5.43431591796875,-0.19838126003742218,0.3354189991950989,-1.4918506145477295
1772456737814335700,5.444335693359375,0.007813448086380959,0.038173217326402664,-1.1115174293518066
1772456737824354800,5.454354736328125,0.05945027619600296,-0.12578855454921722,-0.7229558229446411
1772456737834374000,5.464373779296875,0.013886520639061928,-0.05552930384874344,-0.3902002274990082
1772456737844394000,5.47439404296875,-0.14217445254325867,0.028204206377267838,-0.2083609253168106
1772456737854412800,5.484412841796875,-0.3015257716178894,-0.0896499902009964,-0.20520934462547302
1772456737864433000,5.494432861328125,-0.34282979369163513,-0.4896692931652069,-0.36187031865119934
1772456737874452000,5.504451904296875,-0.31531399488449097,-0.8241484761238098,-0.5802341103553772
1772456737884471800,5.514471923828125,-0.30290794372558594,-0.8713692426681519,-0.7291353940963745
1772456737894491000,5.524490966796875,-0.2934776842594147,-0.6957138180732727,-0.7971120476722717
1772456737904511000,5.534510986328125,-0.24436260759830475,-0.4283097982406616,-0.8274825215339661
1772456737914529800,5.54452978515625,-0.14300429821014404,-0.15342311561107635,-0.8114385604858398
1772456737924550000,5.5545498046875,0.004397944081574678,0.011353588663041592,-0.7348220944404602
1772456737934569000,5.56456884765625,0.1672782003879547,0.07204676419496536,-0.5394147634506226
1772456737944588800,5.5745888671875,0.2886861264705658,0.05198463797569275,-0.2491949051618576
1772456737954607900,5.58460791015625,0.356362909078598,-0.016221581026911736,0.06035575270652771
1772456737964628000,5.5946279296875,0.375604510307312,-0.17903952300548553,0.37962108850479126
1772456737974646800,5.604646728515625,0.3242315948009491,-0.3371817469596863,0.6651106476783752
1772456737984667000,5.6146669921875,0.21533548831939697,-0.4304256737232208,0.8845625519752502
1772456737994686000,5.62468603515625,0.09139196574687958,-0.5020958781242371,1.0446702241897583
1772456738004705000,5.634705078125,-0.004047472029924393,-0.5980205535888672,1.146917700767517
1772456738014724900,5.644724853515625,-0.040762875229120255,-0.6825377941131592,1.1884316205978394
1772456738024743700,5.65474365234375,0.005216599907726049,-0.7897111177444458,1.1167668104171753
1772456738034763800,5.664763671875,0.15658295154571533,-0.9041681885719299,0.8691338300704956
1772456738044782800,5.674782958984375,0.41473886370658875,-0.9331474304199219,0.5512330532073975
1772456738054803000,5.684802978515625,0.7333722114562988,-0.8053476214408875,0.30549386143684387
1772456738064822000,5.694822021484375,1.0373265743255615,-0.5577034950256348,0.1645015925168991
1772456738074841900,5.704841796875,1.25294029712677,-0.37047073245048523,0.08287996798753738
1772456738084861000,5.71486083984375,1.300384521484375,-0.37601250410079956,0.03157816454768181
1772456738094880800,5.724880859375,1.252325415611267,-0.815460205078125,0.039804138243198395
1772456738104899800,5.73489990234375,1.1576141119003296,-1.3899998664855957,0.06233474612236023
1772456738114920000,5.744919921875,0.9844774603843689,-1.5649802684783936,0.19901403784751892
1772456738124939000,5.75493896484375,0.747018039226532,-1.1283464431762695,0.5182937383651733
1772456738134958800,5.764958740234375,0.4494797885417938,-0.3585525453090668,0.9251317977905273
1772456738144978000,5.77497802734375,0.05541186034679413,0.3545921742916107,1.192287564277649
1772456738154997000,5.7849970703125,-0.4442123472690582,1.0220831632614136,1.1886388063430786
1772456738165016800,5.795016845703125,-0.909604012966156,1.5547643899917603,0.8809697031974792
1772456738175036000,5.805035888671875,-1.1631824970245361,1.8724461793899536,0.3859029710292816
1772456738185056000,5.815055908203125,-1.2455908060073853,1.7074925899505615,-0.16669657826423645
1772456738195074800,5.82507470703125,-1.3224773406982422,1.1477172374725342,-0.7166731357574463
1772456738205095000,5.835094970703125,-1.3662538528442383,0.7510952949523926,-1.1717897653579712
1772456738215114000,5.845114013671875,-1.2090919017791748,0.6022501587867737,-1.4898154735565186
1772456738225133800,5.8551337890625,-0.8889769911766052,0.43255355954170227,-1.692575216293335
1772456738235153000,5.86515283203125,-0.631958544254303,0.1968661993741989,-1.792177438735962
1772456738245173000,5.875173095703125,-0.5108526349067688,0.007074953522533178,-1.7560127973556519
1772456738255191800,5.88519189453125,-0.4776533842086792,-0.03684163838624954,-1.5658758878707886
1772456738265212000,5.8952119140625,-0.48222070932388306,0.011813515797257423,-1.2800531387329102
1772456738275231000,5.90523095703125,-0.47259363532066345,-0.004286624025553465,-1.019006609916687
1772456738285250000,5.91525,-0.427350789308548,-0.13196256756782532,-0.8449994325637817
1772456738295270000,5.925269775390625,-0.33338063955307007,-0.284108966588974,-0.7572176456451416
1772456738305288700,5.935288818359375,-0.18691635131835938,-0.35686466097831726,-0.7183647751808167
1772456738315308800,5.945308837890625,0.0033193640410900116,-0.3047361969947815,-0.6850952506065369
1772456738325328000,5.955327880859375,0.21451762318611145,-0.1649860292673111,-0.6269392967224121
1772456738335348000,5.965347900390625,0.40560102462768555,-0.011920042335987091,-0.5280683636665344
1772456738345367000,5.975366943359375,0.540052056312561,0.06357498466968536,-0.40775659680366516
1772456738355387000,5.985386962890625,0.616339921951294,0.0634564682841301,-0.27934694290161133
1772456738365405700,5.99540576171875,0.6354800462722778,0.03262079507112503,-0.13358283042907715
1772456738375425800,6.00542578125,0.5958042740821838,-0.005271460860967636,0.053346045315265656
1772456738385444900,6.01544482421875,0.5072687864303589,-0.023150060325860977,0.28482213616371155
1772456738395465700,6.0254658203125,0.3809622526168823,0.0200477447360754,0.5143344402313232
1772456738405484800,6.03548486328125,0.23057489097118378,0.15624073147773743,0.7058993577957153
1772456738415504600,6.045504638671875,0.09053735435009003,0.3479566276073456,0.8334133625030518
1772456738425523700,6.055523681640625,-0.006205964367836714,0.5196468830108643,0.8902510404586792
1772456738435542800,6.065542724609375,-0.03297898918390274,0.6179534792900085,0.862917959690094
1772456738445563000,6.07556298828125,0.02154151163995266,0.6123829483985901,0.7721654176712036
1772456738455581700,6.085581787109375,0.16940900683403015,0.5361457467079163,0.6548606753349304
1772456738465601800,6.095601806640625,0.3718816936016083,0.415839284658432,0.5530413389205933
1772456738475620900,6.105620849609375,0.589675784111023,0.25431111454963684,0.49592986702919006
1772456738485640700,6.115640625,0.7803642749786377,0.03440644219517708,0.4978888928890228
1772456738495659800,6.12565966796875,0.8961814045906067,-0.24011459946632385,0.571816623210907
1772456738505680000,6.135679931640625,0.9011324644088745,-0.5217470526695251,0.6946192383766174
1772456738515698700,6.14569873046875,0.7670004963874817,-0.7397902011871338,0.8469381928443909
1772456738525718800,6.15571875,0.5217505097389221,-0.8835345506668091,1.0301066637039185
1772456738535737900,6.16573779296875,0.2600342333316803,-0.6965417861938477,1.2911574840545654
1772456738545757700,6.1757578125,0.034693267196416855,-0.23412089049816132,1.5717440843582153
1772456738555776800,6.18577685546875,-0.186701700091362,0.15745247900485992,1.6572211980819702
1772456738565796900,6.195796875,-0.4147372543811798,0.4674593508243561,1.4355053901672363
1772456738575815700,6.205815673828125,-0.5696781277656555,0.7321178913116455,1.012955665588379
1772456738585834800,6.215834716796875,-0.5828250646591187,0.7441335320472717,0.5515017509460449
1772456738595854800,6.225854736328125,-0.5567649602890015,0.44137048721313477,0.23264682292938232
1772456738605874000,6.2358740234375,-0.638606607913971,0.02063044346868992,0.09749726206064224
1772456738615893800,6.245893798828125,-0.8612455129623413,-0.2176244705915451,0.053469881415367126
1772456738625912600,6.25591259765625,-1.0236672163009644,-0.21908174455165863,-0.05164242163300514
1772456738635932700,6.2659326171875,-1.000307321548462,-0.1820044219493866,-0.3181540071964264
1772456738645951700,6.27595166015625,-0.820402204990387,-0.21939626336097717,-0.6782517433166504
1772456738655971800,6.285971923828125,-0.5544632077217102,-0.2990764379501343,-0.98612380027771
1772456738665991000,6.295990966796875,-0.23896224796772003,-0.4231043756008148,-1.1575407981872559
1772456738676010800,6.3060107421875,0.07874860614538193,-0.5655590295791626,-1.1514331102371216
1772456738686029600,6.316029541015625,0.3401951193809509,-0.7020020484924316,-1.0286427736282349
1772456738696049700,6.326049560546875,0.5253191590309143,-0.797086775302887,-0.8511254787445068
1772456738706068700,6.33606884765625,0.6214593052864075,-0.8322146534919739,-0.6917981505393982
1772456738716087800,6.346087890625,0.6255080699920654,-0.7944968342781067,-0.634418249130249
1772456738726108000,6.35610791015625,0.5700246095657349,-0.6541764736175537,-0.7375957369804382
1772456738736126700,6.366126708984375,0.5051659941673279,-0.4041179120540619,-0.9680236577987671
1772456738746146600,6.376146484375,0.4413089454174042,-0.09241488575935364,-1.186597466468811
1772456738756165600,6.38616552734375,0.37118101119995117,0.27111539244651794,-1.275641918182373
1772456738766185700,6.396185791015625,0.2989073395729065,0.6094364523887634,-1.2264349460601807
1772456738776204800,6.406204833984375,0.2666809558868408,0.7945338487625122,-1.0519465208053589
1772456738786225000,6.416224853515625,0.2788476049900055,0.7802987098693848,-0.7795844674110413
1772456738796243700,6.42624365234375,0.30978208780288696,0.6462200284004211,-0.45194536447525024
1772456738806263800,6.436263916015625,0.32698825001716614,0.46836134791374207,-0.1243499144911766
1772456738816282600,6.44628271484375,0.28872475028038025,0.2850959300994873,0.15970364212989807
1772456738826302700,6.456302734375,0.1729520708322525,0.1617116630077362,0.3975068926811218
1772456738836321800,6.46632177734375,0.03543682023882866,0.21963036060333252,0.5708160996437073
1772456738846340600,6.476340576171875,-0.046553920954465866,0.4374423027038574,0.6866774559020996
1772456738856360700,6.486360595703125,-0.06639154255390167,0.7062239646911621,0.7470755577087402
1772456738866379800,6.4963798828125,-0.024453677237033844,0.9113486409187317,0.7342657446861267
1772456738876399900,6.50639990234375,0.07629610598087311,1.0234371423721313,0.6343468427658081
1772456738886419000,6.5164189453125,0.20899368822574615,0.8982717394828796,0.46544304490089417
1772456738896438800,6.526438720703125,0.3476589024066925,0.49084243178367615,0.2420043796300888
1772456738906457600,6.53645751953125,0.47000905871391296,-0.054790277034044266,0.0430326871573925
1772456738916477700,6.546477783203125,0.5683103203773499,-0.49631842970848083,-0.04409608989953995
1772456738926496800,6.556496826171875,0.6147595643997192,-0.8627001643180847,0.020118318498134613
1772456738936516900,6.566516845703125,0.6122263669967651,-1.1483262777328491,0.21090584993362427
1772456738946536000,6.576535888671875,0.5747998952865601,-1.1395554542541504,0.5209758281707764
1772456738956555800,6.5865556640625,0.46076229214668274,-0.7097236514091492,0.9794057011604309
1772456738966574600,6.59657470703125,0.12644502520561218,-0.13377191126346588,1.512040615081787
1772456738976593700,6.60659375,-0.31881821155548096,0.46588432788848877,2.103370428085327
1772456738986613800,6.61661376953125,-0.7761673927307129,0.7583577632904053,2.3976449966430664
1772456738996632800,6.6266328125,-1.1342693567276,0.5970032215118408,2.034083366394043
1772456739006653000,6.63665283203125,-1.3730688095092773,0.6838736534118652,1.229546070098877
1772456739016671700,6.646671630859375,-1.5304467678070068,0.8474910855293274,0.2773706316947937
1772456739026691600,6.656691650390625,-1.5650737285614014,0.5142116546630859,-0.690006673336029
1772456739036710700,6.666710693359375,-1.4346009492874146,0.1570519357919693,-1.421262502670288
1772456739046730800,6.676730712890625,-1.0775146484375,0.003385410411283374,-1.7572306394577026
1772456739056749800,6.686749755859375,-0.5978609919548035,-0.2619871497154236,-1.6903413534164429
1772456739066770000,6.69677001953125,-0.25495558977127075,-0.7554003000259399,-1.2943083047866821
1772456739076788700,6.706788818359375,-0.1281675547361374,-1.2400423288345337,-0.6923651695251465
1772456739086808600,6.71680859375,-0.18095088005065918,-1.437435269355774,-0.07557571679353714
1772456739096827600,6.72682763671875,-0.35255032777786255,-1.3254997730255127,0.3711352050304413
1772456739106846700,6.7368466796875,-0.5687550902366638,-1.0955547094345093,0.5192018747329712
1772456739116866800,6.74686669921875,-0.7074847221374512,-0.950861394405365,0.3436923921108246
1772456739126885600,6.7568857421875,-0.7169216275215149,-0.8794580698013306,-0.06555237621068954
1772456739136905700,6.76690576171875,-0.6115438342094421,-0.7161954045295715,-0.531607985496521
1772456739146924800,6.7769248046875,-0.4067666828632355,-0.4623521864414215,-0.9549781084060669
1772456739156944600,6.786944580078125,-0.1465042233467102,-0.12691986560821533,-1.299709677696228
1772456739166963700,6.796963623046875,0.11648666858673096,0.23424579203128815,-1.5207501649856567
1772456739176983800,6.80698388671875,0.3727802336215973,0.5706432461738586,-1.6233799457550049
1772456739187002600,6.817002685546875,0.5908694267272949,0.7094256281852722,-1.5903700590133667
1772456739197022700,6.827022705078125,0.7287814617156982,0.5653142333030701,-1.4119025468826294
1772456739207041800,6.837041748046875,0.7721862196922302,0.28596732020378113,-1.098205327987671
1772456739217061600,6.8470615234375,0.7995880246162415,0.1261315643787384,-0.7731556296348572
1772456739227080700,6.857080810546875,0.7329487800598145,0.1075030267238617,-0.4335538446903229
1772456739237099500,6.867099609375,0.6796866655349731,0.07047762721776962,-0.16395404934883118
1772456739247119600,6.87711962890625,0.6524872183799744,0.2650391161441803,0.06787438690662384
1772456739257138700,6.887138671875,0.6144940853118896,0.6514390110969543,0.2632569372653961
1772456739267158800,6.89715869140625,0.5702147483825684,1.0307669639587402,0.41497695446014404
1772456739277177900,6.907177734375,0.5234144926071167,1.3500099182128906,0.5378528237342834
1772456739287198000,6.917197998046875,0.5120968222618103,1.5692682266235352,0.6499484777450562
1772456739297216800,6.927216796875,0.555598258972168,1.609357237815857,0.76689213514328
1772456739307236600,6.937236572265625,0.633529782295227,1.320021390914917,0.8684695959091187
1772456739317255700,6.947255615234375,0.7062886953353882,0.6706212162971497,0.892650842666626
1772456739327275800,6.95727587890625,0.7753428816795349,-0.22767123579978943,0.8007313013076782
1772456739337294800,6.967294921875,0.8110364079475403,-1.101624608039856,0.6933295130729675
1772456739347313700,6.977313720703125,0.783636748790741,-2.0119214057922363,0.756366491317749
1772456739357333800,6.987333740234375,0.6737171411514282,-2.7445156574249268,0.8392544388771057
1772456739367352800,6.997352783203125,0.5278316140174866,-3.0948691368103027,1.0466779470443726
1772456739377372700,7.00737255859375,0.4041522741317749,-2.9117090702056885,1.3978372812271118
1772456739387391700,7.017391845703125,0.23291340470314026,-2.412052869796753,1.7917934656143188
1772456739397411300,7.027411376953125,-0.010164487175643444,-1.922088623046875,2.0593883991241455
1772456739407430100,7.03743017578125,-0.26874545216560364,-1.5156382322311401,2.0917952060699463
1772456739417450200,7.0474501953125,-0.5000031590461731,-1.1142386198043823,1.8484587669372559
1772456739427469300,7.05746923828125,-0.7083156108856201,-0.5669382810592651,1.3826053142547607
1772456739437489200,7.0674892578125,-0.9019724130630493,0.11878018081188202,0.7869784832000732
1772456739447508200,7.07750830078125,-1.0061368942260742,0.8612433671951294,0.10682764649391174
1772456739457528300,7.0875283203125,-0.8974719643592834,1.5165165662765503,-0.5924292206764221
1772456739467547100,7.097547119140625,-0.5583088397979736,1.8043888807296753,-1.2371711730957031
1772456739477566200,7.107566162109375,-0.14727573096752167,1.7028920650482178,-1.706610083580017
1772456739487586300,7.11758642578125,0.14116990566253662,1.4327830076217651,-1.9461435079574585
1772456739497605400,7.12760546875,0.2013365775346756,1.1127214431762695,-1.9977484941482544
1772456739507625200,7.137625244140625,0.051241084933280945,0.8845342993736267,-1.9396238327026367
1772456739517644300,7.147644287109375,-0.1476115584373474,0.8075883984565735,-1.8172756433486938
1772456739527664000,7.1576640625,-0.26415520906448364,0.803739607334137,-1.6772806644439697
1772456739537683200,7.16768310546875,-0.24715466797351837,0.7586461901664734,-1.5570924282073975
1772456739547703300,7.177703369140625,-0.11745472252368927,0.6633609533309937,-1.4166102409362793
1772456739557722400,7.187722412109375,0.09134615957736969,0.5322495102882385,-1.213402271270752
1772456739567742500,7.197742431640625,0.34131738543510437,0.36623284220695496,-0.9455137848854065
1772456739577761300,7.20776123046875,0.5860645174980164,0.1851770430803299,-0.6001515984535217
1772456739587780400,7.2177802734375,0.7562285661697388,-0.004998486954718828,-0.19167515635490417
1772456739597800200,7.22780029296875,0.7958604097366333,-0.12068887054920197,0.24422171711921692
1772456739607819300,7.2378193359375,0.7134294509887695,-0.14263704419136047,0.6628554463386536
1772456739617839400,7.24783935546875,0.5266808271408081,-0.07389126718044281,1.0202884674072266
1772456739627858200,7.257858154296875,0.29759228229522705,0.05162857472896576,1.2908499240875244
1772456739637878300,7.267878173828125,0.08525524288415909,0.17806799709796906,1.4512739181518555
1772456739647897300,7.2778974609375,-0.08177235722541809,0.25006523728370667,1.4922360181808472
1772456739657917200,7.287917236328125,-0.1840880811214447,0.24201342463493347,1.4125534296035767
1772456739667936300,7.297936279296875,-0.20799660682678223,0.18254424631595612,1.2295944690704346
1772456739677956400,7.307956298828125,-0.14457955956459045,0.1496424823999405,0.9966779351234436
1772456739687975200,7.31797509765625,0.009186307899653912,0.14264902472496033,0.7600579261779785
1772456739697994200,7.327994140625,0.23506231606006622,0.12212803959846497,0.5461432337760925
1772456739708014300,7.338014404296875,0.47987446188926697,0.03982464596629143,0.38420385122299194
1772456739718033400,7.348033447265625,0.7013024687767029,-0.11020586639642715,0.29725271463394165
1772456739728053200,7.35805322265625,0.8477441072463989,-0.3366278111934662,0.31017571687698364
1772456739738072000,7.368072021484375,0.9089847803115845,-0.5785530805587769,0.4286152720451355
1772456739748092200,7.378092041015625,0.9155476093292236,-0.7579819560050964,0.6331175565719604
1772456739758111200,7.388111328125,0.8625842928886414,-0.8669260144233704,0.8975933790206909
1772456739768131300,7.39813134765625,0.7270275354385376,-0.9922906160354614,1.167851209640503
1772456739778150400,7.408150390625,0.5234861373901367,-1.230161190032959,1.379071831703186
1772456739788170200,7.418170166015625,0.2900709807872772,-1.6045295000076294,1.487488865852356
1772456739798189000,7.42818896484375,0.07919096201658249,-2.013047456741333,1.464748740196228
1772456739808208100,7.4382080078125,-0.01978888548910618,-2.1534969806671143,1.3384613990783691
1772456739818228200,7.448228271484375,-0.02895095758140087,-1.9434372186660767,1.1812375783920288
1772456739828247300,7.458247314453125,-0.053165484219789505,-1.3938250541687012,1.033284068107605
1772456739838267400,7.468267333984375,-0.2289455682039261,-0.6160277724266052,0.8576156497001648
1772456739848286200,7.4782861328125,-0.5077700018882751,0.13638846576213837,0.6258053183555603
1772456739858306000,7.48830615234375,-0.8077625632286072,0.6174474954605103,0.3001675605773926
1772456739868325000,7.4983251953125,-1.0823861360549927,0.7296398282051086,-0.10556477308273315
1772456739878345200,7.50834521484375,-1.2549039125442505,0.6767776608467102,-0.5427351593971252
1772456739888364300,7.5183642578125,-1.2573355436325073,0.7561105489730835,-0.9503767490386963
1772456739898384400,7.52838427734375,-1.087739109992981,0.7681451439857483,-1.297406792640686
1772456739908403200,7.5384033203125,-0.8452979922294617,0.49907398223876953,-1.5430001020431519
1772456739918422300,7.54842236328125,-0.6409043669700623,0.05535326898097992,-1.603284239768982
1772456739928442000,7.558442138671875,-0.48653608560562134,-0.33283600211143494,-1.4857701063156128
1772456739938461200,7.568461181640625,-0.3721860945224762,-0.5923852920532227,-1.3102267980575562
1772456739948481300,7.578481201171875,-0.32485318183898926,-0.6699075102806091,-1.1624263525009155
1772456739958500000,7.5885,-0.34790363907814026,-0.5633161067962646,-1.1014354228973389
1772456739968520200,7.598520263671875,-0.3887922167778015,-0.35302144289016724,-1.1450562477111816
1772456739978539300,7.608539306640625,-0.37963467836380005,-0.08964759111404419,-1.2784030437469482
1772456739988559400,7.618559326171875,-0.2846716642379761,0.23223350942134857,-1.3973848819732666
1772456739998578400,7.628578369140625,-0.15943333506584167,0.5494085550308228,-1.4304271936416626
1772456740008598300,7.638598388671875,-0.0340740792453289,0.7615469098091125,-1.3659664392471313
1772456740018617000,7.6486171875,0.07534428685903549,0.7966899871826172,-1.2010784149169922
1772456740028636200,7.65863623046875,0.17575637996196747,0.7487911581993103,-0.9298706650733948
1772456740038656300,7.66865625,0.2543116509914398,0.6628312468528748,-0.5733649730682373
1772456740048675300,7.67867529296875,0.27158835530281067,0.5257556438446045,-0.1922203153371811
1772456740058695400,7.6886953125,0.23989808559417725,0.3206419348716736,0.13470429182052612
1772456740068714200,7.69871435546875,0.20771858096122742,0.11115661263465881,0.35438817739486694
1772456740078734000,7.708734130859375,0.18452590703964233,-0.0232376791536808,0.4506063163280487
1772456740088753200,7.718753173828125,0.11983505636453629,-0.07073089480400085,0.46063312888145447
1772456740098773200,7.728773193359375,0.07065313309431076,-0.05560813471674919,0.4167194664478302
1772456740108792300,7.738792236328125,0.08831547945737839,0.1127939224243164,0.3520600497722626
1772456740118812400,7.7488125,0.160304456949234,0.399814248085022,0.29413148760795593
1772456740128831200,7.758831298828125,0.2377912551164627,0.6565211415290833,0.2380485236644745
1772456740138850300,7.768850341796875,0.2811531126499176,0.8180711269378662,0.2019301950931549
1772456740148870100,7.7788701171875,0.29430779814720154,0.8519284725189209,0.20442451536655426
1772456740158889200,7.78888916015625,0.30726781487464905,0.7928441166877747,0.26511767506599426
1772456740168909300,7.798909423828125,0.32850944995880127,0.7043256759643555,0.38761937618255615
1772456740178928000,7.80892822265625,0.35188961029052734,0.6078438758850098,0.5565287470817566
1772456740188948200,7.8189482421875,0.3615741729736328,0.46127042174339294,0.7448230385780334
1772456740198967300,7.82896728515625,0.3572089970111847,0.25446370244026184,0.9531035423278809
1772456740208987100,7.838987060546875,0.30708804726600647,0.005831257440149784,1.1513633728027344
1772456740219006200,7.849006103515625,0.18632912635803223,-0.40426599979400635,1.2733118534088135
1772456740229026300,7.8590263671875,-0.010873686522245407,-1.0336838960647583,1.2184609174728394
1772456740239045000,7.869045166015625,-0.22887872159481049,-1.4522430896759033,0.9521333575248718
1772456740249064200,7.879064208984375,-0.3162887394428253,-1.176111102104187,0.6215735673904419
1772456740259084300,7.889084228515625,-0.2433311641216278,-0.3393820524215698,0.35286858677864075
1772456740269103400,7.899103271484375,-0.21699969470500946,0.2608185410499573,0.06308389455080032
1772456740279123200,7.909123291015625,-0.29554829001426697,0.5353116393089294,-0.2676791250705719
1772456740289142000,7.91914208984375,-0.3465936481952667,0.9493290185928345,-0.45633745193481445
1772456740299162000,7.929162109375,-0.4167082607746124,1.2552410364151,-0.4761260747909546
1772456740309181200,7.93918115234375,-0.5289823412895203,1.1482537984848022,-0.44716525077819824
1772456740319201300,7.949201171875,-0.6068840622901917,0.9933593273162842,-0.49973684549331665
1772456740329220400,7.959220458984375,-0.4820907413959503,0.9879259467124939,-0.6676182746887207
1772456740339240200,7.969240234375,-0.10182250291109085,0.8468064069747925,-0.8942657709121704
1772456740349259300,7.97925927734375,0.3747941255569458,0.316497266292572,-1.05283784866333
1772456740359278000,7.989278076171875,0.7223907113075256,-0.4014070928096771,-1.0434563159942627
1772456740369298200,7.999298095703125,0.894223153591156,-0.9499793648719788,-0.933290421962738
1772456740379317200,8.009317138671875,0.8909671902656555,-1.250261664390564,-0.8323217034339905
1772456740389337300,8.01933740234375,0.7803088426589966,-1.3246147632598877,-0.7597692012786865
1772456740399356000,8.02935595703125,0.6152845025062561,-1.2857235670089722,-0.698015570640564
1772456740409375700,8.039375732421876,0.4135550856590271,-1.1356117725372314,-0.6529157757759094
1772456740419394800,8.049394775390626,0.20099808275699615,-0.8495294451713562,-0.6228113770484924
1772456740429414700,8.05941455078125,0.01357306633144617,-0.4410077631473541,-0.5973494052886963
1772456740439433700,8.069433837890625,-0.17137494683265686,-0.010747719556093216,-0.6328120827674866
1772456740449452800,8.079452880859375,-0.32562416791915894,0.3341715931892395,-0.7195616364479065
1772456740459473000,8.089472900390625,-0.42639419436454773,0.5580204129219055,-0.7965362668037415
1772456740469491700,8.09949169921875,-0.4873986840248108,0.6395559906959534,-0.8093240261077881
1772456740479511800,8.10951171875,-0.5277367830276489,0.5855436325073242,-0.7513110041618347
1772456740489531000,8.11953076171875,-0.573075532913208,0.45465752482414246,-0.6517010927200317
1772456740499550700,8.12955078125,-0.6344999670982361,0.3018783628940582,-0.546699047088623
1772456740509569800,8.13956982421875,-0.7039229869842529,0.2038668394088745,-0.44512954354286194
1772456740519589600,8.149589599609374,-0.7540077567100525,0.2172151356935501,-0.31758782267570496
1772456740529608700,8.159608642578124,-0.7599431276321411,0.40189602971076965,-0.15609532594680786
1772456740539628800,8.16962890625,-0.7171618342399597,0.6693322658538818,0.025108283385634422
1772456740549648000,8.17964794921875,-0.6354643106460571,0.9188733696937561,0.21320389211177826
1772456740559667000,8.1896669921875,-0.5156385898590088,1.0695850849151611,0.3967286944389343
1772456740569686800,8.199686767578125,-0.35905563831329346,1.0944324731826782,0.5685694217681885
1772456740579704800,8.209704833984375,-0.1623430997133255,1.0020718574523926,0.7239134907722473
1772456740589724700,8.219724609375,0.0442846417427063,0.9005356431007385,0.8372672200202942
1772456740599743700,8.22974365234375,0.25770875811576843,0.6998566389083862,0.8989707827568054
1772456740609762600,8.239762451171876,0.5118675231933594,0.25716787576675415,0.9226526618003845
1772456740619782700,8.24978271484375,0.7971099615097046,-0.2628137767314911,0.8876294493675232
1772456740629801700,8.2598017578125,1.0052365064620972,-0.6123939156532288,0.7894964814186096
1772456740639821800,8.26982177734375,1.1426244974136353,-0.9198915362358093,0.6911789774894714
1772456740649841000,8.2798408203125,1.148863434791565,-1.370460867881775,0.6851200461387634
1772456740659860700,8.28986083984375,0.9515511989593506,-1.690926432609558,0.8334096074104309
1772456740669879600,8.299879638671875,0.5832018852233887,-1.6240185499191284,1.0763384103775024
1772456740679899600,8.309899658203125,0.14646106958389282,-1.2842273712158203,1.376816987991333
1772456740689918700,8.319918701171876,-0.2583250403404236,-0.7616904377937317,1.6673442125320435
1772456740699937800,8.329937744140626,-0.5677981972694397,-0.18093782663345337,1.7818691730499268
1772456740709958000,8.3399580078125,-0.7547792792320251,0.40308061242103577,1.5984684228897095
1772456740719976700,8.349976806640624,-0.8151094317436218,0.8476154804229736,1.1385929584503174
1772456740729996800,8.359996826171875,-0.8302580118179321,0.9759771823883057,0.5828274488449097
1772456740740015900,8.370015869140625,-0.9022698998451233,0.700403094291687,0.04868524894118309
1772456740750035700,8.38003564453125,-0.9452184438705444,0.43587052822113037,-0.4585222899913788
1772456740760054800,8.3900546875,-0.7450909614562988,0.430372416973114,-0.9284181594848633
1772456740770075000,8.400074951171876,-0.212031289935112,0.33494070172309875,-1.3084648847579956
1772456740780093700,8.41009375,0.5209705233573914,0.000990695902146399,-1.4896044731140137
1772456740790113800,8.42011376953125,1.2398197650909424,-0.4431028664112091,-1.4071335792541504
1772456740800132900,8.4301328125,1.808388352394104,-0.798719584941864,-1.0992075204849243
1772456740810152000,8.44015185546875,2.137068510055542,-1.1007957458496094,-0.7041121125221252
1772456740820171800,8.450171875,2.181011438369751,-1.3876116275787354,-0.2837938964366913
1772456740830190800,8.46019091796875,1.968109369277954,-1.44987154006958,0.13096840679645538
1772456740840210700,8.470210693359375,1.5737929344177246,-1.2053773403167725,0.4492153525352478
1772456740850229800,8.480229736328125,1.1116913557052612,-0.8331707119941711,0.5460460186004639
1772456740860249900,8.490249755859375,0.6895291805267334,-0.4792124032974243,0.38352954387664795
1772456740870269000,8.50026904296875,0.3768170475959778,-0.1869879961013794,0.03069905750453472
1772456740880288800,8.510288818359374,0.19532209634780884,0.06289534270763397,-0.3791579604148865
1772456740890307600,8.5203076171875,0.1228012889623642,0.29000839591026306,-0.741266667842865
1772456740900326700,8.53032666015625,0.11113717406988144,0.48226651549339294,-0.973796546459198
1772456740910346800,8.5403466796875,0.09973884373903275,0.6242519021034241,-1.0562288761138916
1772456740920365800,8.55036572265625,0.028545092791318893,0.6457923054695129,-1.0202569961547852
1772456740930386000,8.560385986328125,-0.13173113763332367,0.5341941714286804,-0.8834722638130188
1772456740940405000,8.570405029296875,-0.364840030670166,0.33933544158935547,-0.6567637324333191
1772456740950424600,8.580424560546875,-0.6309840679168701,0.18436823785305023,-0.3831559121608734
1772456740960444700,8.590444580078126,-0.8951930999755859,0.15548546612262726,-0.10319642722606659
1772456740970463700,8.600463623046876,-1.1113605499267578,0.25048574805259705,0.11320777982473373
1772456740980482800,8.61048291015625,-1.2060694694519043,0.40038734674453735,0.22762277722358704
1772456740990503000,8.6205029296875,-1.1379109621047974,0.5329640507698059,0.21650540828704834
1772456741000522000,8.63052197265625,-0.9210121631622314,0.5815821886062622,0.08827207237482071
1772456741010541600,8.64054150390625,-0.609403669834137,0.5321464538574219,-0.09389187395572662
1772456741020560600,8.650560546875,-0.3065498173236847,0.37630707025527954,-0.23554673790931702
1772456741030580700,8.660580810546875,-0.0731583684682846,0.07064513862133026,-0.26732492446899414
1772456741040599800,8.670599853515625,0.07478262484073639,-0.4047698676586151,-0.17604932188987732
1772456741050620000,8.680619873046876,0.1291891485452652,-0.9731521010398865,0.04061240702867508
1772456741060638700,8.690638671875,0.07782795280218124,-1.5266070365905762,0.3540206551551819
1772456741070658600,8.700658447265624,-0.078789621591568,-1.8503293991088867,0.6775997877120972
1772456741080677600,8.710677734375,-0.34073469042778015,-1.701695203781128,0.9292581081390381
1772456741090696700,8.72069677734375,-0.6340006589889526,-0.9577853679656982,1.1424622535705566
1772456741100716800,8.730716796875,-0.8444079756736755,0.035107918083667755,1.3208833932876587
1772456741110736000,8.74073583984375,-0.9353626370429993,0.6304927468299866,1.2789056301116943
1772456741120755700,8.750755615234375,-0.9525120258331299,0.76780104637146,0.9281270503997803
1772456741130774800,8.76077490234375,-0.9385600090026855,0.7604933381080627,0.4615018367767334
1772456741140795000,8.770794921875,-0.91050785779953,0.718327522277832,0.06082713231444359
1772456741150813700,8.780813720703126,-0.9183732271194458,0.5483887791633606,-0.17981930077075958
1772456741160833800,8.790833740234374,-1.0433948040008545,0.3703218698501587,-0.3183169960975647
1772456741170852600,8.8008525390625,-1.1951518058776855,0.37109071016311646,-0.47964543104171753
1772456741180871700,8.81087158203125,-1.1441962718963623,0.5534021854400635,-0.7179837226867676
1772456741190891800,8.820891845703125,-0.8204994201660156,0.6269328594207764,-0.9882718920707703
1772456741200910800,8.830910888671875,-0.3392361104488373,0.4045059382915497,-1.2078362703323364
1772456741210931000,8.840930908203125,0.12278983741998672,0.11593858897686005,-1.2076133489608765
1772456741220950000,8.850949951171875,0.4456067681312561,-0.1610565334558487,-0.9746791124343872
1772456741230969600,8.860969482421876,0.6033279299736023,-0.4504563808441162,-0.626727819442749
1772456741240988700,8.87098876953125,0.6213279962539673,-0.7170268297195435,-0.28066733479499817
1772456741251008800,8.8810087890625,0.5381436347961426,-0.8452093005180359,-0.020869063213467598
1772456741261027800,8.89102783203125,0.3875037729740143,-0.7816367149353027,0.1106969565153122
1772456741271047000,8.901046875,0.20932552218437195,-0.5465189814567566,0.07538263499736786
1772456741281067000,8.91106689453125,0.03566931560635567,-0.23952603340148926,-0.09600136429071426
1772456741291085800,8.9210859375,-0.0959441065788269,0.09175948053598404,-0.3217604458332062
1772456741301105700,8.931105712890625,-0.1886921525001526,0.4497511684894562,-0.520856499671936
1772456741311124700,8.941124755859375,-0.23030297458171844,0.7903867959976196,-0.6583861708641052
1772456741321144800,8.951144775390626,-0.23211605846881866,1.0708682537078857,-0.7118003964424133
1772456741331164000,8.961163818359376,-0.22179657220840454,1.2138712406158447,-0.6843562126159668
1772456741341183700,8.971183837890624,-0.21687079966068268,1.159669280052185,-0.5597197413444519
1772456741351202800,8.981202880859374,-0.24493572115898132,0.9529767632484436,-0.3410518765449524
1772456741361222000,8.991221923828125,-0.306637167930603,0.7211502194404602,-0.054239802062511444
1772456741371241700,9.00124169921875,-0.3900308609008789,0.616873562335968,0.2645309865474701
1772456741381260800,9.0112607421875,-0.47622621059417725,0.645117998123169,0.5620740056037903
1772456741391281000,9.021281005859375,-0.5340761542320251,0.759051501750946,0.8064948916435242
1772456741401300500,9.031300537109376,-0.5446081757545471,0.8702682852745056,0.9618906378746033
1772456741411320300,9.0413203125,-0.4976723790168762,0.9146525263786316,1.0188792943954468
1772456741421339400,9.05133935546875,-0.3752247393131256,0.8855998516082764,0.9827405214309692
1772456741431359500,9.061359375,-0.18210002779960632,0.7753812074661255,0.8977883458137512
1772456741441378600,9.071378662109375,0.05510852485895157,0.593855082988739,0.802685558795929
1772456741451398400,9.0813984375,0.3062251806259155,0.3463262617588043,0.7395116090774536
1772456741461417500,9.09141748046875,0.5276284217834473,0.01119140163064003,0.7210106253623962
1772456741471436500,9.1014365234375,0.6625316143035889,-0.41411542892456055,0.7368274331092834
1772456741481456600,9.11145654296875,0.6864361763000488,-0.8571341037750244,0.7822614908218384
1772456741491475500,9.121475341796875,0.5988051295280457,-1.2706269025802612,0.844906210899353
1772456741501495600,9.13149560546875,0.4327314496040344,-1.6533482074737549,0.8744787573814392
1772456741511514400,9.141514404296874,0.2224740833044052,-1.9448643922805786,0.786177933216095
1772456741521534500,9.151534423828124,0.04340233653783798,-1.9864171743392944,0.5440124273300171
1772456741531553500,9.161553466796875,-0.045879073441028595,-1.870553731918335,0.2569875717163086
1772456741541573600,9.17157373046875,-0.019303657114505768,-1.623390793800354,0.07239430397748947
1772456741551592700,9.1815927734375,0.03111877106130123,-1.222898244857788,0.0584273561835289
1772456741561611500,9.191611572265625,-0.07830945402383804,-0.5870041251182556,0.16053853929042816
1772456741571631400,9.20163134765625,-0.30526429414749146,0.13947907090187073,0.24260304868221283
1772456741581650400,9.211650390625,-0.5092887878417969,0.5453062057495117,0.20419573783874512
1772456741591670500,9.22167041015625,-0.5997638702392578,0.4276789128780365,0.00996155384927988
1772456741601689600,9.231689697265624,-0.5736646056175232,0.19445176422595978,-0.27962952852249146
1772456741611709700,9.241709716796874,-0.43530458211898804,0.11755646020174026,-0.6130852699279785
1772456741621728500,9.251728515625,-0.21051515638828278,0.014391722157597542,-0.9629340767860413
1772456741631748400,9.261748291015625,-0.02587314322590828,-0.3264433741569519,-1.2678759098052979
1772456741641767400,9.271767333984375,0.051476508378982544,-0.7805224657058716,-1.468058466911316
1772456741651786500,9.281786376953125,0.07603564858436584,-1.1178224086761475,-1.5395110845565796
1772456741661806600,9.291806640625,0.1200300008058548,-1.2679530382156372,-1.4914764165878296
1772456741671825400,9.301825439453125,0.15433284640312195,-1.2468457221984863,-1.3843330144882202
1772456741681845500,9.311845458984376,0.10714536160230637,-1.0824333429336548,-1.262865424156189
1772456741691864600,9.321864501953126,-0.017069531604647636,-0.7856996059417725,-1.1498863697052002
1772456741701884400,9.331884521484374,-0.18036630749702454,-0.3964565396308899,-1.0788838863372803
1772456741711903500,9.341903564453125,-0.3317164182662964,0.019525498151779175,-1.0515238046646118
1772456741721923600,9.351923583984375,-0.4224737584590912,0.4244420826435089,-1.037819266319275
1772456741731942400,9.3619423828125,-0.404487282037735,0.7992148995399475,-1.0132579803466797
1772456741741961500,9.37196142578125,-0.29820558428764343,1.0974944829940796,-0.9567611217498779
1772456741751981600,9.381981689453125,-0.15846501290798187,1.2218183279037476,-0.8389689922332764
1772456741762000600,9.392000732421875,-0.0158319603651762,1.1540414094924927,-0.6589843034744263
1772456741772020500,9.4020205078125,0.09558111429214478,0.926647424697876,-0.41283658146858215
1772456741782039300,9.412039306640626,0.1623407006263733,0.6033324599266052,-0.12563090026378632
1772456741792059400,9.422059326171874,0.1721283495426178,0.2248421609401703,0.16246986389160156
1772456741802078500,9.432078369140624,0.14259310066699982,-0.0981939435005188,0.41952458024024963
1772456741812098600,9.4420986328125,0.09657740592956543,-0.2930545210838318,0.6256968975067139
1772456741822117600,9.45211767578125,0.05841164290904999,-0.3826211392879486,0.7434123754501343
1772456741832136400,9.462136474609375,0.0508330874145031,-0.37991857528686523,0.7683006525039673
1772456741842156300,9.47215625,0.0788910835981369,-0.2702866196632385,0.7179362773895264
1772456741852175400,9.48217529296875,0.1476709544658661,-0.04861307516694069,0.650265634059906
1772456741862195500,9.492195556640626,0.2714932858943939,0.2254277914762497,0.600510835647583
1772456741872214500,9.502214599609376,0.43838053941726685,0.4265870153903961,0.583244264125824
1772456741882234600,9.512234619140624,0.6370055079460144,0.4566149413585663,0.5985832810401917
1772456741892253400,9.52225341796875,0.8280388116836548,0.3265059292316437,0.6485313773155212
1772456741902273500,9.5322734375,0.9671072363853455,0.12125558406114578,0.7336063385009766
1772456741912292600,9.542292724609375,1.0272454023361206,-0.11760199815034866,0.8618559241294861
1772456741922311400,9.5523115234375,1.0241411924362183,-0.3752146363258362,1.009153962135315
1772456741932331500,9.56233154296875,0.9074452519416809,-0.6214358806610107,1.1543892621994019
1772456741942350300,9.572350341796875,0.6853248476982117,-0.9145409464836121,1.236495018005371
1772456741952370400,9.582370361328126,0.3848169147968292,-1.0434494018554688,1.222764015197754
1772456741962389500,9.592389404296876,0.14832662045955658,-0.8045454621315002,1.1714856624603271
1772456741972409600,9.60240966796875,0.06519445031881332,-0.3874624967575073,1.1564662456512451
1772456741982428700,9.6124287109375,0.05883508548140526,0.005591839086264372,1.1803406476974487
1772456741992448500,9.622448486328125,-0.016833575442433357,0.3177654445171356,1.2274941205978394
1772456742002467300,9.63246728515625,-0.19639641046524048,0.4615897238254547,1.1975401639938354
1772456742012486400,9.642486328125,-0.37203535437583923,0.3992278277873993,1.0622931718826294
1772456742022506500,9.652506591796875,-0.4711044132709503,0.2653493881225586,0.8647345304489136
1772456742032525600,9.662525634765625,-0.5152428150177002,0.03592817485332489,0.605810284614563
1772456742042545700,9.672545654296876,-0.5520714521408081,-0.17553560435771942,0.29978832602500916
1772456742052564500,9.682564453125,-0.5409783124923706,-0.24312983453273773,-0.005172657780349255
1772456742062584300,9.692584228515624,-0.48397305607795715,-0.30979594588279724,-0.2710144519805908
1772456742072603400,9.702603271484374,-0.39885443449020386,-0.4656981825828552,-0.48105132579803467
1772456742082623500,9.71262353515625,-0.31633055210113525,-0.6173436641693115,-0.642942488193512
1772456742092642600,9.722642578125,-0.2465197592973709,-0.7850668430328369,-0.7793847322463989
1772456742102661400,9.732661376953125,-0.24834322929382324,-0.9151390790939331,-0.8969691395759583
1772456742112681500,9.742681396484375,-0.3622772693634033,-0.939189076423645,-1.0214810371398926
1772456742122700500,9.752700439453125,-0.5419120192527771,-0.9232098460197449,-1.206003189086914
1772456742132720400,9.762720458984376,-0.7065818905830383,-0.8194208145141602,-1.4084765911102295
1772456742142739500,9.772739501953126,-0.7841475605964661,-0.5052248239517212,-1.5389957427978516
1772456742152759600,9.782759521484374,-0.7487474679946899,-0.0963750034570694,-1.5970865488052368
1772456742162778400,9.7927783203125,-0.6404334902763367,0.3792565166950226,-1.5601167678833008
1772456742172798500,9.802798583984375,-0.48187369108200073,0.8831992745399475,-1.3756976127624512
1772456742182817500,9.812817626953125,-0.3120846748352051,1.2912230491638184,-1.0531249046325684
1772456742192836600,9.822836669921875,-0.1544463038444519,1.475519061088562,-0.6346682906150818
1772456742202856400,9.8328564453125,-0.0221489779651165,1.4127475023269653,-0.168075829744339
1772456742212875500,9.84287548828125,0.05031296983361244,1.1777414083480835,0.2924851179122925
1772456742222895400,9.852895263671876,0.06595931202173233,0.8553053140640259,0.6992582082748413
1772456742232914400,9.86291455078125,0.027036678045988083,0.5086797475814819,1.0072602033615112
1772456742242934500,9.8729345703125,-0.05536685138940811,0.2385806143283844,1.182411551475525
1772456742252953600,9.88295361328125,-0.1730806976556778,0.16018220782279968,1.2151628732681274
1772456742262972700,9.89297265625,-0.2772960662841797,0.2848895192146301,1.1370280981063843
1772456742272992300,9.9029921875,-0.3314908444881439,0.5487198233604431,0.9776397943496704
1772456742283011300,9.91301123046875,-0.3064635396003723,0.872995138168335,0.7661418914794922
1772456742293031400,9.923031494140625,-0.21125365793704987,1.18433678150177,0.5462050437927246
1772456742303050500,9.933050537109375,-0.08519718796014786,1.4250787496566772,0.3624487519264221
1772456742313070600,9.943070556640626,0.0440412275493145,1.5747793912887573,0.23794838786125183
1772456742323089700,9.953089599609376,0.18126219511032104,1.5729655027389526,0.17283542454242706
1772456742333109500,9.963109619140624,0.3235711455345154,1.3886542320251465,0.15243640542030334
1772456742343128300,9.97312841796875,0.4516148567199707,1.054197072982788,0.18789799511432648
1772456742353147400,9.9831474609375,0.5062432289123535,0.5311922430992126,0.29354000091552734
1772456742363167500,9.99316748046875,0.494179904460907,-0.18209044635295868,0.4260985851287842
1772456742373186600,10.0031865234375,0.38595008850097656,-0.8455323576927185,0.4570658206939697
1772456742383206700,10.01320654296875,0.13919757306575775,-1.0448307991027832,0.3327111005783081
1772456742393225500,10.0232255859375,0.04754461720585823,-1.0537872314453125,0.19468213617801666
1772456742403245000,10.0332451171875,0.08743956685066223,-0.9647354483604431,0.03442481905221939
1772456742413264000,10.043263916015626,0.13697116076946259,-0.7125617861747742,-0.08057713508605957
1772456742423283700,10.05328369140625,0.10879465937614441,-0.33202826976776123,-0.10454531759023666
1772456742433302800,10.063302734375,-0.010822287760674953,0.04392750933766365,-0.061708636581897736
1772456742443321900,10.07332177734375,-0.16940714418888092,0.29506680369377136,0.012085691094398499
1772456742453342000,10.083342041015625,-0.2959999740123749,0.2544613182544708,0.06734202057123184
1772456742463360800,10.09336083984375,-0.3583376407623291,0.022477878257632256,0.027286216616630554
1772456742473380900,10.103380859375,-0.2924893796443939,-0.06513585895299911,-0.12031522393226624
1772456742483400000,10.11339990234375,0.005253351293504238,0.13027651607990265,-0.2938137650489807
1772456742493419800,10.123419677734375,0.45680108666419983,0.29042676091194153,-0.3951824903488159
1772456742503438800,10.13343896484375,0.8463965058326721,0.0663774237036705,-0.409152626991272
1772456742513459000,10.143458984375,1.0557595491409302,-0.5042392015457153,-0.3219572603702545
1772456742523477800,10.153477783203124,1.1119874715805054,-1.1845895051956177,-0.08526456356048584
1772456742533496800,10.163496826171874,1.0854711532592773,-1.610537052154541,0.30732372403144836
1772456742543517000,10.173516845703125,0.9446325302124023,-1.7390271425247192,0.6815093159675598
1772456742553536000,10.183535888671875,0.6686882972717285,-1.592769742012024,0.8906425833702087
1772456742563555800,10.193555908203125,0.3278961181640625,-1.205102801322937,0.8554153442382812
1772456742573574700,10.20357470703125,0.03458061441779137,-0.5880621671676636,0.5820629000663757
1772456742583594800,10.2135947265625,-0.13513997197151184,0.14917829632759094,0.15334215760231018
1772456742593613800,10.22361376953125,-0.17492520809173584,0.8456891775131226,-0.32166457176208496
1772456742603633000,10.2336328125,-0.12940645217895508,1.3616840839385986,-0.7185016870498657
1772456742613653000,10.243653076171874,-0.039506129920482635,1.6037534475326538,-0.9602552056312561
1772456742623671800,10.253671875,0.05756315961480141,1.6215431690216064,-0.9932658672332764
1772456742633692000,10.26369189453125,0.11628612875938416,1.4310171604156494,-0.856194019317627
1772456742643711000,10.2737109375,0.10487394779920578,1.0638654232025146,-0.6087751984596252
1772456742653730800,10.283730712890625,0.031317707151174545,0.6499420404434204,-0.2989337146282196
1772456742663750000,10.29375,-0.06891036033630371,0.30991339683532715,0.023200394585728645
1772456742673770000,10.30377001953125,-0.1659434288740158,0.04556082561612129,0.29277488589286804
1772456742683788800,10.313788818359376,-0.2536008358001709,-0.1430777907371521,0.4945721924304962
1772456742693807900,10.323807861328126,-0.32481297850608826,-0.20103563368320465,0.626962423324585
1772456742703828000,10.333827880859374,-0.3623638153076172,-0.18384812772274017,0.6667894721031189
1772456742713847000,10.343846923828124,-0.3808858394622803,-0.13542573153972626,0.6038387417793274
1772456742723867000,10.353866943359375,-0.39379870891571045,-0.07758747041225433,0.4603700041770935
1772456742733885700,10.3638857421875,-0.42135176062583923,-0.026999393478035927,0.25892478227615356
1772456742743905800,10.37390576171875,-0.46481162309646606,0.0016727314796298742,0.031674839556217194
1772456742753924900,10.3839248046875,-0.5107583403587341,0.0034932682756334543,-0.19137369096279144
1772456742763944000,10.39394384765625,-0.5524743795394897,-0.02116999961435795,-0.38568803668022156
1772456742773964000,10.403964111328126,-0.576898455619812,-0.09339998662471771,-0.5478526949882507
1772456742783982800,10.41398291015625,-0.582878053188324,-0.1948224902153015,-0.6697602272033691
1772456742794002700,10.424002685546874,-0.5682224035263062,-0.31141459941864014,-0.7575744986534119
1772456742804021800,10.434021728515624,-0.543340265750885,-0.45337414741516113,-0.7942153215408325
1772456742814041900,10.444041748046875,-0.5032396912574768,-0.6081605553627014,-0.7858484983444214
1772456742824061000,10.45406103515625,-0.44405093789100647,-0.785357654094696,-0.7431969046592712
1772456742834081000,10.4640810546875,-0.34564608335494995,-0.9557664394378662,-0.6891565918922424
1772456742844099800,10.474099853515625,-0.19663609564304352,-1.1081314086914062,-0.618505597114563
1772456742854119000,10.484118896484375,-0.022889869287610054,-1.264595627784729,-0.5418054461479187
1772456742864138800,10.494138671875,0.10950864851474762,-1.3805811405181885,-0.4382535219192505
1772456742874157800,10.50415771484375,0.1852521449327469,-1.3619927167892456,-0.28399524092674255
1772456742884178000,10.514177978515624,0.20315977931022644,-1.2335567474365234,-0.10983169078826904
1772456742894196700,10.52419677734375,0.17737558484077454,-1.0727194547653198,0.03850425034761429
1772456742904216800,10.534216796875,0.145196333527565,-0.8978703618049622,0.13299639523029327
1772456742914236000,10.54423583984375,0.10686200112104416,-0.7434853315353394,0.18253092467784882
1772456742924255000,10.5542548828125,0.051832038909196854,-0.5696602463722229,0.19993947446346283
1772456742934274800,10.56427490234375,-0.016226107254624367,-0.3762942850589752,0.1859235316514969
1772456742944294000,10.5742939453125,-0.08730960637331009,-0.24790488183498383,0.13242381811141968
1772456742954313700,10.584313720703125,-0.10531576722860336,-0.13676796853542328,0.04703435301780701
1772456742964332800,10.594332763671876,-0.08656338602304459,0.013083045370876789,-0.04525509476661682
1772456742974353000,10.604352783203124,-0.08537428826093674,0.14611433446407318,-0.12668763101100922
1772456742984372000,10.6143720703125,-0.10861781984567642,0.2475575953722,-0.19835303723812103
1772456742994391800,10.624391845703125,-0.10878001153469086,0.3247096538543701,-0.23831883072853088
1772456743004411000,10.634410888671875,-0.10967563092708588,0.39266499876976013,-0.24182167649269104
1772456743014429700,10.6444296875,-0.1398220807313919,0.4632563292980194,-0.2391848862171173
1772456743024449800,10.65444970703125,-0.16470053791999817,0.49112817645072937,-0.2416997104883194
1772456743034468900,10.66446875,-0.1516675502061844,0.490931898355484,-0.24394288659095764
1772456743044489000,10.674489013671876,-0.1184062734246254,0.4828875660896301,-0.22455614805221558
1772456743054508000,10.684508056640626,-0.08782599121332169,0.4792235791683197,-0.17549565434455872
1772456743064528000,10.69452783203125,-0.07572831958532333,0.4526665508747101,-0.11669199168682098
1772456743074546700,10.704546630859374,-0.07179562747478485,0.3508935868740082,-0.0737338736653328
1772456743084565800,10.714565673828124,-0.06485915929079056,0.21638503670692444,-0.06290972232818604
1772456743094585900,10.7245859375,-0.058760784566402435,0.12812495231628418,-0.07517038285732269
1772456743104605000,10.73460498046875,-0.059110190719366074,0.13049915432929993,-0.08997223526239395
1772456743114625000,10.744625,-0.0646708682179451,0.23558136820793152,-0.09730657935142517
1772456743124643800,10.754643798828125,-0.050707653164863586,0.35856932401657104,-0.07209976017475128
1772456743134664000,10.764663818359375,-0.02239212393760681,0.4089805781841278,-0.03364184871315956
1772456743144683000,10.77468310546875,0.014099041000008583,0.3812520205974579,0.0067969197407364845
1772456743154702800,10.784702880859374,0.07730357348918915,0.33749866485595703,0.052489571273326874
1772456743164722000,10.794721923828124,0.12919819355010986,0.26056182384490967,0.08817699551582336
1772456743174740700,10.80474072265625,0.154719278216362,0.2504703104496002,0.09082923829555511
1772456743184760800,10.8147607421875,0.15983892977237701,0.41394710540771484,0.18162386119365692
1772456743194780000,10.82477978515625,0.12365083396434784,0.4122498631477356,0.25033873319625854
1772456743204800000,10.834800048828125,0.07957791537046432,0.16200567781925201,0.22723715007305145
1772456743214819000,10.844819091796875,0.08956290781497955,-0.11938418447971344,0.151431605219841
1772456743224839000,10.8548388671875,0.09353501349687576,-0.2339688241481781,0.07602526247501373
1772456743234857700,10.864857666015626,0.02358708530664444,-0.26177436113357544,0.0008349010022357106
1772456743244876800,10.874876708984376,-0.06369402259588242,-0.24544864892959595,-0.009136506356298923
1772456743254897000,10.88489697265625,-0.07172292470932007,-0.20293660461902618,0.03809572011232376
1772456743264916000,10.894916015625,-0.007405984681099653,-0.2868650555610657,0.023089606314897537
