time,seconds_elapsed,z,y,x
1772456316038949400,0.059949462890625,-0.9711761474609375,-0.016632080078125,0.0286865234375
1772456316048967200,0.06996728515625,-0.9790191650390625,-0.016571044921875,0.0330047607421875
1772456316058986200,0.079986328125,-0.9855499267578125,-0.0152435302734375,0.0337982177734375
1772456316069004300,0.09000439453125,-0.9802398681640625,-0.0170440673828125,0.0322265625
1772456316079023000,0.100023193359375,-0.9645233154296875,-0.0172882080078125,0.0260772705078125
1772456316089041200,0.110041259765625,-0.95709228515625,-0.009796142578125,0.02301025390625
1772456316099060200,0.120060302734375,-0.9579925537109375,-0.0025634765625,0.01873779296875
1772456316109078300,0.130078369140625,-0.959442138671875,-0.005279541015625,0.0136566162109375
1772456316119097300,0.140097412109375,-0.9625701904296875,-0.0131378173828125,0.01300048828125
1772456316129115100,0.150115234375,-0.9611358642578125,-0.0215301513671875,0.011322021484375
1772456316139134200,0.16013427734375,-0.9651336669921875,-0.022186279296875,0.0132293701171875
1772456316149152300,0.17015234375,-0.974365234375,-0.015655517578125,0.019500732421875
1772456316159170000,0.180170166015625,-0.9817352294921875,-0.0141143798828125,0.025054931640625
1772456316169189000,0.190189208984375,-0.9904022216796875,-0.01300048828125,0.0243682861328125
1772456316179207200,0.200207275390625,-0.9901885986328125,-0.0111541748046875,0.027618408203125
1772456316189226200,0.210226318359375,-0.97509765625,-0.01300048828125,0.027923583984375
1772456316199244300,0.220244384765625,-0.952178955078125,-0.0131378173828125,0.0221099853515625
1772456316209263000,0.23026318359375,-0.9394073486328125,-0.0089263916015625,0.0176544189453125
1772456316219281200,0.24028125,-0.9295806884765625,-0.0079498291015625,0.0173492431640625
1772456316229300200,0.25030029296875,-0.91668701171875,-0.01678466796875,0.0132293701171875
1772456316239318000,0.260318115234375,-0.8945465087890625,-0.0184173583984375,0.00360107421875
1772456316249337000,0.270337158203125,-0.8695526123046875,-0.011199951171875,0.00885009765625
1772456316259355400,0.28035546875,-0.864501953125,-0.010406494140625,0.0196990966796875
1772456316269373200,0.290373291015625,-0.8653106689453125,-0.0179595947265625,0.011383056640625
1772456316279392300,0.300392333984375,-0.8645782470703125,-0.031494140625,0.007843017578125
1772456316289410000,0.31041015625,-0.85626220703125,-0.0499267578125,0.00982666015625
1772456316299429000,0.32042919921875,-0.839599609375,-0.0702972412109375,0.006744384765625
1772456316309447200,0.330447265625,-0.80413818359375,-0.08087158203125,0.019989013671875
1772456316319466200,0.34046630859375,-0.7752838134765625,-0.0822906494140625,0.0249176025390625
1772456316329484300,0.350484375,-0.7640533447265625,-0.074249267578125,0.038665771484375
1772456316339503400,0.36050341796875,-0.779449462890625,-0.0684661865234375,0.0411376953125
1772456316349521200,0.370521240234375,-0.8140411376953125,-0.0678863525390625,0.0376434326171875
1772456316359540200,0.380540283203125,-0.875274658203125,-0.055419921875,0.03759765625
1772456316369558000,0.39055810546875,-0.9846649169921875,-0.04730224609375,0.03363037109375
1772456316379577000,0.4005771484375,-1.1205291748046875,-0.0521240234375,-0.003936767578125
1772456316389595400,0.410595458984375,-1.233734130859375,-0.08197021484375,-0.0386199951171875
1772456316399614200,0.4206142578125,-1.2654266357421875,-0.1065521240234375,-0.0791473388671875
1772456316409632300,0.43063232421875,-1.20654296875,-0.0908660888671875,-0.090240478515625
1772456316419650000,0.440650146484375,-1.1282501220703125,-0.0507354736328125,-0.0662384033203125
1772456316429669000,0.450669189453125,-1.150146484375,-0.024993896484375,-0.0450439453125
1772456316439687200,0.460687255859375,-1.3095550537109375,-0.0243988037109375,-0.0486297607421875
1772456316449706000,0.4707060546875,-1.5496826171875,-0.0115509033203125,-0.070587158203125
1772456316459724300,0.480724365234375,-1.7668914794921875,0.0193939208984375,-0.069915771484375
1772456316469743400,0.490743408203125,-1.9029693603515625,0.02557373046875,-0.067657470703125
1772456316479761200,0.50076123046875,-1.9379425048828125,0.023651123046875,-0.072235107421875
1772456316489780200,0.5107802734375,-1.8696441650390625,0.037384033203125,-0.0721588134765625
1772456316499798300,0.52079833984375,-1.7524871826171875,0.0396270751953125,-0.1254730224609375
1772456316509817000,0.530817138671875,-1.637054443359375,0.0713958740234375,-0.1746826171875
1772456316519835100,0.540835205078125,-1.5619659423828125,0.137603759765625,-0.1782379150390625
1772456316529854200,0.550854248046875,-1.548828125,0.1860504150390625,-0.1631622314453125
1772456316539872300,0.560872314453125,-1.600341796875,0.2225494384765625,-0.1482696533203125
1772456316549890300,0.570890380859375,-1.6795501708984375,0.257293701171875,-0.1010589599609375
1772456316559909000,0.5809091796875,-1.713226318359375,0.2745208740234375,-0.057647705078125
1772456316569927200,0.59092724609375,-1.681396484375,0.2469635009765625,-0.0346527099609375
1772456316579946200,0.6009462890625,-1.6177215576171875,0.1783447265625,-0.0256195068359375
1772456316589964000,0.610964111328125,-1.5456085205078125,0.0687255859375,-0.0320281982421875
1772456316599983000,0.620983154296875,-1.43939208984375,-0.035125732421875,-0.0563812255859375
1772456316610001200,0.631001220703125,-1.267425537109375,-0.0847015380859375,-0.087158203125
1772456316620020200,0.641020263671875,-1.0684967041015625,-0.102020263671875,-0.1108245849609375
1772456316630038300,0.651038330078125,-0.8872833251953125,-0.099639892578125,-0.1016082763671875
1772456316640057000,0.66105712890625,-0.735595703125,-0.1008453369140625,-0.0940399169921875
1772456316650075100,0.6710751953125,-0.5986785888671875,-0.0854339599609375,-0.0875701904296875
1772456316660094200,0.68109423828125,-0.4530181884765625,-0.0943145751953125,-0.04193115234375
1772456316670112300,0.6911123046875,-0.250732421875,-0.1146697998046875,0.00872802734375
1772456316680130300,0.70113037109375,-0.034210205078125,-0.08880615234375,0.0362548828125
1772456316690149400,0.7111494140625,0.09149169921875,-0.0674896240234375,0.08184814453125
1772456316700167200,0.721167236328125,0.12615966796875,-0.080169677734375,0.087310791015625
1772456316710186200,0.731186279296875,0.200531005859375,-0.0868072509765625,0.0542449951171875
1772456316720204000,0.7412041015625,0.2129364013671875,-0.05023193359375,0.0314178466796875
1772456316730223000,0.75122314453125,0.15057373046875,-0.02825927734375,0.0273590087890625
1772456316740241400,0.761241455078125,0.0646514892578125,-0.0538330078125,0.031585693359375
1772456316750260200,0.77126025390625,-0.064453125,-0.066253662109375,0.038238525390625
1772456316760278300,0.7812783203125,-0.1414031982421875,-0.0820465087890625,-0.00494384765625
1772456316770297300,0.79129736328125,-0.2049102783203125,-0.109222412109375,0.003997802734375
1772456316780315100,0.801315185546875,-0.2855682373046875,-0.1072540283203125,0.0047149658203125
1772456316790334200,0.811334228515625,-0.333221435546875,-0.1146392822265625,0.0059661865234375
1772456316800352000,0.82135205078125,-0.3830718994140625,-0.15863037109375,0.019775390625
1772456316810370300,0.831370361328125,-0.445587158203125,-0.1764984130859375,0.023590087890625
1772456316820389400,0.841389404296875,-0.5504913330078125,-0.18621826171875,0.034423828125
1772456316830407200,0.8514072265625,-0.735260009765625,-0.20550537109375,0.0392913818359375
1772456316840426200,0.86142626953125,-0.92462158203125,-0.20947265625,0.048309326171875
1772456316850444000,0.871444091796875,-1.093780517578125,-0.2161407470703125,0.0226898193359375
1772456316860463000,0.881463134765625,-1.2800140380859375,-0.1956787109375,-0.0180511474609375
1772456316870481200,0.891481201171875,-1.4811248779296875,-0.16351318359375,-0.02508544921875
1772456316880500000,0.9015,-1.65020751953125,-0.1408843994140625,-0.0523223876953125
1772456316890518300,0.911518310546875,-1.8674774169921875,-0.1859588623046875,-0.006591796875
1772456316900537300,0.921537353515625,-2.0862884521484375,-0.303680419921875,0.037689208984375
1772456316910555100,0.93155517578125,-2.1088104248046875,-0.36572265625,0.12725830078125
1772456316920574200,0.94157421875,-2.0409698486328125,-0.2823944091796875,0.205322265625
1772456316930593300,0.95159326171875,-1.9656829833984375,-0.1493072509765625,0.2573699951171875
1772456316940611000,0.961611083984375,-1.9722900390625,-0.0528564453125,0.2197113037109375
1772456316950630100,0.971630126953125,-2.0272674560546875,0.00048828125,0.1638336181640625
1772456316960648200,0.981648193359375,-2.0455780029296875,0.0296783447265625,0.101165771484375
1772456316970667000,0.9916669921875,-2.0033721923828125,0.0914459228515625,0.1274566650390625
1772456316980685300,1.001685302734375,-1.9742279052734375,0.105377197265625,0.1744232177734375
1772456316990704400,1.011704345703125,-2.0646820068359375,0.0608978271484375,0.2100982666015625
1772456317000722200,1.02172216796875,-2.1888427734375,-0.0263214111328125,0.251983642578125
1772456317010741200,1.0317412109375,-2.045318603515625,-0.1405487060546875,0.2715301513671875
1772456317020759000,1.041759033203125,-1.65679931640625,-0.16461181640625,0.2669525146484375
1772456317030778000,1.051778076171875,-1.170135498046875,-0.182342529296875,0.201812744140625
1772456317040796200,1.061796142578125,-0.7112274169921875,-0.1914825439453125,0.1251068115234375
1772456317050815200,1.071815185546875,-0.3583221435546875,-0.192474365234375,0.0403594970703125
1772456317060833300,1.081833251953125,-0.1524658203125,-0.1848602294921875,-0.0054168701171875
1772456317070851000,1.09185107421875,-0.04925537109375,-0.16705322265625,-0.0003204345703125
1772456317080870100,1.1018701171875,0.0386505126953125,-0.157257080078125,0.047332763671875
1772456317090888200,1.11188818359375,0.1281890869140625,-0.1435699462890625,0.08148193359375
1772456317100907000,1.121906982421875,0.198089599609375,-0.1329498291015625,0.0701751708984375
1772456317110925300,1.13192529296875,0.2076263427734375,-0.132080078125,0.0369720458984375
1772456317120944400,1.1419443359375,0.165557861328125,-0.119293212890625,-0.0006561279296875
1772456317130962200,1.151962158203125,0.154510498046875,-0.07330322265625,-0.017486572265625
1772456317140981200,1.161981201171875,0.1692352294921875,0.016326904296875,-0.020660400390625
1772456317150999300,1.171999267578125,0.1689453125,0.0688323974609375,0.006256103515625
1772456317161018000,1.18201806640625,0.036651611328125,0.049896240234375,0.00103759765625
1772456317171036200,1.1920361328125,-0.20916748046875,0.023895263671875,0.0036773681640625
1772456317181055200,1.20205517578125,-0.380889892578125,-0.011505126953125,0.0117340087890625
1772456317191073300,1.2120732421875,-0.5111083984375,-0.028961181640625,0.028167724609375
1772456317201091300,1.22209130859375,-0.5911102294921875,-0.0725250244140625,0.0451812744140625
1772456317211110100,1.232110107421875,-0.620849609375,-0.1121063232421875,0.0293426513671875
1772456317221128200,1.242128173828125,-0.66796875,-0.1587371826171875,0.0218048095703125
1772456317231147300,1.252147216796875,-0.713348388671875,-0.2204742431640625,0.014312744140625
1772456317241165000,1.2621650390625,-0.791412353515625,-0.2261199951171875,-0.0247039794921875
1772456317251184000,1.27218408203125,-0.8018951416015625,-0.238250732421875,-0.02734375
1772456317261202200,1.2822021484375,-0.7413177490234375,-0.23724365234375,-0.030059814453125
1772456317271221200,1.29222119140625,-0.757476806640625,-0.24371337890625,-0.0506134033203125
1772456317281239300,1.3022392578125,-0.8642425537109375,-0.2849578857421875,-0.1393890380859375
1772456317291258000,1.312258056640625,-1.21697998046875,-0.3643035888671875,-0.1737213134765625
1772456317301276200,1.322276123046875,-1.7522430419921875,-0.517669677734375,-0.1676788330078125
1772456317311295200,1.332295166015625,-2.1346893310546875,-0.5972137451171875,-0.181640625
1772456317321313000,1.34231298828125,-2.216064453125,-0.4771270751953125,-0.2022857666015625
1772456317331331300,1.352331298828125,-2.1945648193359375,-0.3060150146484375,-0.0793914794921875
1772456317341350100,1.36235009765625,-2.2599639892578125,-0.2228851318359375,0.01226806640625
1772456317351368200,1.3723681640625,-2.2620697021484375,-0.1782989501953125,0.0261383056640625
1772456317361387300,1.38238720703125,-2.161712646484375,-0.085845947265625,0.051727294921875
1772456317371405000,1.392405029296875,-2.0619354248046875,-0.0524749755859375,0.0188446044921875
1772456317381424000,1.402424072265625,-2.0364837646484375,-0.1154937744140625,0.0048828125
1772456317391442200,1.412442138671875,-1.9605865478515625,-0.1276397705078125,0.0584564208984375
1772456317401461200,1.422461181640625,-1.817535400390625,-0.1349334716796875,0.1278839111328125
1772456317411479300,1.432479248046875,-1.6644744873046875,-0.192413330078125,0.1209716796875
1772456317421498400,1.442498291015625,-1.61083984375,-0.2544708251953125,0.100433349609375
1772456317431516200,1.45251611328125,-1.5821075439453125,-0.25653076171875,0.074981689453125
1772456317441535200,1.46253515625,-1.356353759765625,-0.188262939453125,-0.0576171875
1772456317451553000,1.472552978515625,-1.1373138427734375,-0.1005401611328125,-0.06622314453125
1772456317461571300,1.4825712890625,-0.8414306640625,-0.134002685546875,-0.1123809814453125
1772456317471590400,1.49259033203125,-0.5883941650390625,-0.177764892578125,-0.06036376953125
1772456317481608200,1.502608154296875,-0.485931396484375,-0.2226715087890625,0.0216827392578125
1772456317491627300,1.512627197265625,-0.2848663330078125,-0.2897491455078125,0.0493621826171875
1772456317501645000,1.52264501953125,0.0855865478515625,-0.2901153564453125,0.0771484375
1772456317511664000,1.5326640625,0.39959716796875,-0.2012939453125,0.0873565673828125
1772456317521682200,1.54268212890625,0.536468505859375,-0.114166259765625,0.10223388671875
1772456317531701000,1.552700927734375,0.50054931640625,-0.066009521484375,0.033050537109375
1772456317541719300,1.56271923828125,0.306915283203125,0.020721435546875,0.0382537841796875
1772456317551738400,1.57273828125,0.1442413330078125,0.0744781494140625,0.0287933349609375
1772456317561756200,1.582756103515625,0.0212249755859375,0.0454559326171875,-0.0336151123046875
1772456317571775200,1.592775146484375,-0.2036895751953125,0.0107574462890625,-0.0284423828125
1772456317581793300,1.602793212890625,-0.3320770263671875,-0.0662841796875,-0.0559234619140625
1772456317591811000,1.61281103515625,-0.46270751953125,-0.06524658203125,-0.087371826171875
1772456317601830100,1.622830078125,-0.616790771484375,-0.09222412109375,0.0107421875
1772456317611848200,1.63284814453125,-0.72088623046875,-0.2724609375,0.1550750732421875
1772456317621867300,1.6428671875,-0.8684844970703125,-0.324737548828125,0.1134796142578125
1772456317631885300,1.65288525390625,-1.0059967041015625,-0.202117919921875,0.148223876953125
1772456317641904000,1.662904052734375,-0.9667510986328125,-0.219024658203125,0.0760498046875
1772456317651922200,1.672922119140625,-0.8732757568359375,-0.231048583984375,0.0079498291015625
1772456317661941200,1.682941162109375,-0.914703369140625,-0.191741943359375,0.009307861328125
1772456317671959000,1.692958984375,-1.1700897216796875,-0.2855682373046875,-0.05523681640625
1772456317681978000,1.70297802734375,-1.5630950927734375,-0.31768798828125,-0.1343994140625
1772456317691996200,1.71299609375,-1.8637542724609375,-0.3760223388671875,-0.154296875
1772456317702014200,1.72301416015625,-1.9135284423828125,-0.4576873779296875,-0.11431884765625
1772456317712033300,1.733033203125,-1.867767333984375,-0.4190521240234375,-0.0840301513671875
1772456317722051000,1.743051025390625,-1.885009765625,-0.3514862060546875,0.0121307373046875
1772456317732070100,1.753070068359375,-1.8921966552734375,-0.2789306640625,0.0439300537109375
1772456317742088200,1.763088134765625,-1.8234710693359375,-0.2126617431640625,0.0180816650390625
1772456317752107300,1.773107177734375,-1.7321929931640625,-0.1537628173828125,0.00299072265625
1772456317762125300,1.783125244140625,-1.7872772216796875,-0.09881591796875,0.0182647705078125
1772456317772144000,1.79314404296875,-1.9908599853515625,-0.0996856689453125,0.0534210205078125
1772456317782162200,1.803162109375,-2.243011474609375,-0.120941162109375,0.1386566162109375
1772456317792181200,1.81318115234375,-2.2660064697265625,-0.17047119140625,0.20697021484375
1772456317802199000,1.823198974609375,-2.0313873291015625,-0.218353271484375,0.255096435546875
1772456317812218000,1.833218017578125,-1.704803466796875,-0.240478515625,0.2227783203125
1772456317822236400,1.843236328125,-1.3475494384765625,-0.206878662109375,0.150543212890625
1772456317832254200,1.853254150390625,-0.9951171875,-0.1567535400390625,0.06866455078125
1772456317842273300,1.863273193359375,-0.6548004150390625,-0.146270751953125,0.0179595947265625
1772456317852291000,1.873291015625,-0.36785888671875,-0.1276092529296875,-0.0220794677734375
1772456317862310100,1.88331005859375,-0.1473388671875,-0.10589599609375,-0.024322509765625
1772456317872328200,1.893328125,-0.031494140625,-0.1056671142578125,-0.0121917724609375
1772456317882347000,1.903346923828125,-0.0188446044921875,-0.129150390625,0.0184478759765625
1772456317892365300,1.913365234375,-0.033905029296875,-0.13531494140625,0.0453033447265625
1772456317902384400,1.92338427734375,-0.04937744140625,-0.120819091796875,0.060577392578125
1772456317912402200,1.933402099609375,-0.0030670166015625,-0.1047210693359375,0.076385498046875
1772456317922421200,1.943421142578125,0.07159423828125,-0.0844879150390625,0.08203125
1772456317932438500,1.9534384765625,0.08740234375,-0.0848541259765625,0.07965087890625
1772456317942457600,1.96345751953125,0.0765533447265625,-0.0899810791015625,0.071929931640625
1772456317952475600,1.9734755859375,0.00885009765625,-0.08001708984375,0.0690460205078125
1772456317962493700,1.98349365234375,-0.0917510986328125,-0.1107940673828125,0.0349884033203125
1772456317972512500,1.993512451171875,-0.19586181640625,-0.156585693359375,-0.0125885009765625
1772456317982530600,2.003530517578125,-0.340240478515625,-0.202178955078125,-0.0315399169921875
1772456317992549600,2.013549560546875,-0.50213623046875,-0.22613525390625,-0.0389404296875
1772456318002567400,2.0235673828125,-0.6181793212890625,-0.24725341796875,-0.0176239013671875
1772456318012586500,2.03358642578125,-0.6901397705078125,-0.267791748046875,0.0224761962890625
1772456318022604500,2.0436044921875,-0.805419921875,-0.304840087890625,0.083587646484375
1772456318032623600,2.05362353515625,-0.903350830078125,-0.347442626953125,0.08251953125
1772456318042641700,2.0636416015625,-0.9053802490234375,-0.334991455078125,0.0824432373046875
1772456318052660500,2.073660400390625,-0.9450836181640625,-0.323699951171875,0.0916595458984375
1772456318062678500,2.083678466796875,-1.132110595703125,-0.3270111083984375,0.0515289306640625
1772456318072696300,2.0936962890625,-1.426971435546875,-0.3446807861328125,0.0267333984375
1772456318082715400,2.10371533203125,-1.86907958984375,-0.431854248046875,-0.0542144775390625
1772456318092733700,2.113733642578125,-2.233917236328125,-0.524139404296875,-0.17474365234375
1772456318102752500,2.12375244140625,-2.295745849609375,-0.48016357421875,-0.2719268798828125
1772456318112770600,2.1337705078125,-2.18310546875,-0.3397674560546875,-0.2234039306640625
1772456318122789600,2.14378955078125,-2.033721923828125,-0.23504638671875,-0.027984619140625
1772456318132807400,2.153807373046875,-2.0438690185546875,-0.1435394287109375,0.16766357421875
1772456318142826500,2.163826416015625,-2.1128387451171875,-0.12042236328125,0.3107452392578125
1772456318152844500,2.173844482421875,-2.095184326171875,-0.1708221435546875,0.3427581787109375
1772456318162863600,2.183863525390625,-2.1556549072265625,-0.0562896728515625,0.4183197021484375
1772456318172881700,2.193881591796875,-2.3333740234375,0.0311279296875,0.4804840087890625
1772456318182900700,2.203900634765625,-2.2410888671875,-0.0899505615234375,0.453704833984375
1772456318192918500,2.21391845703125,-1.945281982421875,-0.154998779296875,0.411834716796875
1772456318202936600,2.2239365234375,-1.6141357421875,-0.1454315185546875,0.3671417236328125
1772456318212955400,2.233955322265625,-1.235748291015625,-0.1889495849609375,0.2546539306640625
1772456318222973700,2.2439736328125,-0.884124755859375,-0.2386627197265625,0.090301513671875
1772456318232992800,2.25399267578125,-0.5755615234375,-0.1489105224609375,-0.0379180908203125
1772456318243010600,2.264010498046875,-0.1843414306640625,-0.1322479248046875,-0.136322021484375
1772456318253029600,2.274029541015625,0.0164947509765625,-0.1389617919921875,-0.1529388427734375
1772456318263047400,2.28404736328125,-0.0503997802734375,-0.09869384765625,-0.1075592041015625
1772456318273066500,2.29406640625,-0.1923828125,-0.083953857421875,-0.0168914794921875
1772456318283084500,2.30408447265625,-0.197418212890625,-0.0808258056640625,0.0027008056640625
1772456318293103400,2.314103271484375,-0.1268768310546875,-0.0228424072265625,0.04296875
1772456318303121700,2.32412158203125,0.022064208984375,-0.006622314453125,0.052032470703125
1772456318313139700,2.3341396484375,0.1543731689453125,0.001129150390625,0.0713043212890625
1772456318323158500,2.344158447265625,0.2158203125,0.000335693359375,0.1011505126953125
1772456318333176600,2.354176513671875,0.184051513671875,-0.0235595703125,0.12646484375
1772456318343195600,2.364195556640625,0.1108245849609375,-0.06402587890625,0.1548919677734375
1772456318353213400,2.37421337890625,-0.015869140625,-0.08917236328125,0.1519317626953125
1772456318363232500,2.384232421875,-0.218353271484375,-0.1118621826171875,0.1413421630859375
1772456318373250600,2.39425048828125,-0.386199951171875,-0.15435791015625,0.109375
1772456318383269600,2.40426953125,-0.4818267822265625,-0.14788818359375,0.06121826171875
1772456318393287700,2.41428759765625,-0.56072998046875,-0.14630126953125,0.020660400390625
1772456318403306500,2.424306396484375,-0.6616668701171875,-0.1724700927734375,-0.0010223388671875
1772456318413324500,2.434324462890625,-0.748931884765625,-0.205718994140625,-0.0245513916015625
1772456318423342600,2.444342529296875,-0.8130340576171875,-0.240203857421875,-0.050567626953125
1772456318433361400,2.454361328125,-0.898895263671875,-0.261993408203125,-0.063568115234375
1772456318443379700,2.464379638671875,-1.04302978515625,-0.295013427734375,-0.07318115234375
1772456318453398500,2.4743984375,-1.1893157958984375,-0.3403472900390625,-0.0991973876953125
1772456318463416600,2.48441650390625,-1.4246826171875,-0.3994903564453125,-0.199920654296875
1772456318473435600,2.494435546875,-1.670440673828125,-0.45147705078125,-0.2518157958984375
1772456318483453400,2.504453369140625,-1.8366546630859375,-0.49700927734375,-0.2813720703125
1772456318493472500,2.514472412109375,-1.8180694580078125,-0.4852447509765625,-0.310546875
1772456318503490600,2.524490478515625,-1.7774658203125,-0.35333251953125,-0.2887115478515625
1772456318513509600,2.534509521484375,-1.821380615234375,-0.2265472412109375,-0.1533050537109375
1772456318523527700,2.544527587890625,-1.9345703125,-0.1484375,-0.0557403564453125
1772456318533546500,2.55454638671875,-2.081146240234375,-0.02166748046875,0.001251220703125
1772456318543564500,2.564564453125,-2.2899169921875,0.1104888916015625,0.0994873046875
1772456318553582600,2.57458251953125,-2.5911407470703125,0.1229248046875,0.209442138671875
1772456318563601400,2.584601318359375,-2.70794677734375,0.0493621826171875,0.332672119140625
1772456318573619700,2.59461962890625,-2.4920654296875,-0.0198211669921875,0.4360504150390625
1772456318583638800,2.604638671875,-2.0998687744140625,-0.0773162841796875,0.4669342041015625
1772456318593656600,2.614656494140625,-1.6473388671875,-0.16436767578125,0.381866455078125
1772456318603675600,2.624675537109375,-1.1729583740234375,-0.2263336181640625,0.2541656494140625
1772456318613693400,2.634693359375,-0.7068939208984375,-0.231353759765625,0.1165313720703125
1772456318623712500,2.64471240234375,-0.32562255859375,-0.195220947265625,0.0545501708984375
1772456318633730600,2.65473046875,-0.1192474365234375,-0.1626129150390625,0.013336181640625
1772456318643749400,2.664749267578125,-0.0479736328125,-0.1757354736328125,-0.0064849853515625
1772456318653767700,2.674767578125,-0.072357177734375,-0.197540283203125,-0.006683349609375
1772456318663786800,2.684786865234375,-0.104034423828125,-0.1891632080078125,-0.0038604736328125
1772456318673804500,2.694804443359375,-0.1177825927734375,-0.182952880859375,0.0182037353515625
1772456318683822600,2.704822509765625,-0.1125946044921875,-0.1766204833984375,-0.00341796875
1772456318693841400,2.71484130859375,-0.0635986328125,-0.1760101318359375,0.0004119873046875
1772456318703859500,2.724859375,-0.0145111083984375,-0.1482696533203125,0.0089874267578125
1772456318713878500,2.73487841796875,0.02093505859375,-0.1103668212890625,-0.0132293701171875
1772456318723896600,2.744896484375,0.034423828125,-0.0957489013671875,-0.0129852294921875
1772456318733915600,2.75491552734375,0.0082855224609375,-0.0818023681640625,-0.02093505859375
1772456318743933700,2.76493359375,-0.0598602294921875,-0.0829620361328125,-0.02691650390625
1772456318753952500,2.774952392578125,-0.20013427734375,-0.1104583740234375,-0.0254364013671875
1772456318763970600,2.784970458984375,-0.3447418212890625,-0.1445159912109375,-0.020477294921875
1772456318773989600,2.79498974609375,-0.440704345703125,-0.1835174560546875,-0.00213623046875
1772456318784007400,2.80500732421875,-0.47589111328125,-0.2080535888671875,0.0177001953125
1772456318794025700,2.815025634765625,-0.4927215576171875,-0.2324676513671875,0.019775390625
1772456318804044500,2.82504443359375,-0.536102294921875,-0.2395477294921875,0.0062408447265625
1772456318814062600,2.8350625,-0.6175537109375,-0.231048583984375,-0.0180816650390625
1772456318824081700,2.84508154296875,-0.734954833984375,-0.2058563232421875,-0.040191650390625
1772456318834099500,2.855099365234375,-0.9445953369140625,-0.17694091796875,-0.097381591796875
1772456318844118500,2.865118408203125,-1.168121337890625,-0.171844482421875,-0.1909942626953125
1772456318854136600,2.875136474609375,-1.421356201171875,-0.192901611328125,-0.2581329345703125
1772456318864155600,2.88515576171875,-1.7594451904296875,-0.261383056640625,-0.3278045654296875
1772456318874173700,2.895173583984375,-2.063873291015625,-0.363616943359375,-0.35418701171875
1772456318884192500,2.905192626953125,-2.17486572265625,-0.401031494140625,-0.34552001953125
1772456318894210600,2.91521044921875,-2.14471435546875,-0.282867431640625,-0.261962890625
1772456318904229600,2.925229736328125,-2.1274871826171875,-0.149871826171875,-0.0599365234375
1772456318914247400,2.935247314453125,-2.162567138671875,-0.0717926025390625,0.124542236328125
1772456318924265700,2.945265625,-2.1807403564453125,-0.0558013916015625,0.2066497802734375
1772456318934285000,2.95528515625,-2.1449432373046875,-0.0468292236328125,0.218536376953125
1772456318944303000,2.96530322265625,-2.1404571533203125,0.00787353515625,0.22296142578125
1772456318954322200,2.975322265625,-2.1862030029296875,0.038909912109375,0.241363525390625
1772456318964340000,2.985340087890625,-2.1543731689453125,0.0294189453125,0.2674560546875
1772456318974359000,2.995359130859375,-1.99951171875,0.0090484619140625,0.278564453125
1772456318984377000,3.005377197265625,-1.818572998046875,-0.0308074951171875,0.272003173828125
1772456318994396000,3.01539599609375,-1.5707855224609375,-0.082427978515625,0.2171478271484375
1772456319004414200,3.025414306640625,-1.233245849609375,-0.1135711669921875,0.149688720703125
1772456319014433000,3.03543310546875,-0.9017486572265625,-0.1463470458984375,0.09417724609375
1772456319024451000,3.045451171875,-0.5916290283203125,-0.188720703125,0.011474609375
1772456319034469000,3.05546923828125,-0.319122314453125,-0.2072601318359375,-0.033843994140625
1772456319044488000,3.065488037109375,-0.137786865234375,-0.22369384765625,-0.063323974609375
1772456319054506000,3.075506103515625,-0.0432586669921875,-0.2045745849609375,-0.0702667236328125
1772456319064525000,3.085525146484375,-0.006561279296875,-0.1730499267578125,-0.045745849609375
1772456319074543000,3.095543212890625,-0.0042724609375,-0.1593017578125,-0.031097412109375
1772456319084562200,3.105562255859375,-0.0267791748046875,-0.119873046875,0.0004119873046875
1772456319094580200,3.115580322265625,-0.0377197265625,-0.087890625,0.0166015625
1772456319104599000,3.12559912109375,-0.0107879638671875,-0.0468597412109375,0.002044677734375
1772456319114617000,3.1356171875,0.00640869140625,-0.005401611328125,0.0074005126953125
1772456319124636200,3.14563623046875,0.0050048828125,-0.00836181640625,0.0064849853515625
1772456319134654000,3.155654052734375,0.00634765625,-0.0219268798828125,0.003326416015625
1772456319144673000,3.165673095703125,-0.0079498291015625,-0.024993896484375,-0.0060272216796875
1772456319154691000,3.175691162109375,-0.0703582763671875,-0.03955078125,-0.0272979736328125
1772456319164709000,3.185709228515625,-0.2256927490234375,-0.063446044921875,-0.0498809814453125
1772456319174728200,3.195728271484375,-0.4248046875,-0.103240966796875,-0.042633056640625
1772456319184746000,3.20574609375,-0.623809814453125,-0.1363677978515625,-0.0139312744140625
1772456319194765000,3.21576513671875,-0.7992706298828125,-0.160064697265625,0.0013275146484375
1772456319204782800,3.225782958984375,-0.9979705810546875,-0.2132568359375,0.01019287109375
1772456319214802000,3.235802001953125,-1.1611785888671875,-0.2771453857421875,0.0039215087890625
1772456319224820200,3.2458203125,-1.2511749267578125,-0.33013916015625,-0.0007781982421875
1772456319234839000,3.255839111328125,-1.378997802734375,-0.388458251953125,-0.0524139404296875
1772456319244857000,3.265857177734375,-1.6003265380859375,-0.4359588623046875,-0.0803375244140625
1772456319254876200,3.275876220703125,-1.884796142578125,-0.4656982421875,-0.09210205078125
1772456319264894000,3.28589404296875,-2.0863800048828125,-0.5050506591796875,-0.0986480712890625
1772456319274912000,3.295912109375,-2.0375518798828125,-0.43365478515625,-0.0975799560546875
1772456319284931000,3.30593115234375,-1.9085540771484375,-0.283477783203125,-0.0819854736328125
1772456319294949000,3.31594921875,-1.885955810546875,-0.1616668701171875,0.027069091796875
1772456319304968200,3.32596826171875,-1.9754486083984375,-0.083831787109375,0.1158599853515625
1772456319314986000,3.335986083984375,-2.0530242919921875,-0.0090789794921875,0.165069580078125
1772456319325005000,3.346005126953125,-2.1491851806640625,0.0597076416015625,0.2030487060546875
1772456319335023000,3.356023193359375,-2.30230712890625,0.0773773193359375,0.2503509521484375
1772456319345042000,3.3660419921875,-2.3800048828125,0.041412353515625,0.271484375
1772456319355060200,3.376060302734375,-2.2149505615234375,0.0001983642578125,0.2613067626953125
1772456319365079000,3.3860791015625,-1.8343658447265625,-0.0440216064453125,0.240386962890625
1772456319375097000,3.39609716796875,-1.454315185546875,-0.1132659912109375,0.176116943359375
1772456319385116200,3.4061162109375,-1.0586090087890625,-0.152984619140625,0.09332275390625
1772456319395134000,3.416134033203125,-0.661590576171875,-0.1649322509765625,0.0198822021484375
1772456319405152000,3.426152099609375,-0.338653564453125,-0.1424713134765625,-0.020172119140625
1772456319415171000,3.436171142578125,-0.14410400390625,-0.1213226318359375,-0.043182373046875
1772456319425189000,3.446189208984375,-0.1049346923828125,-0.1248779296875,-0.0449371337890625
1772456319435208200,3.456208251953125,-0.1554412841796875,-0.15643310546875,-0.0453033447265625
1772456319445226000,3.46622607421875,-0.19049072265625,-0.1841583251953125,-0.03857421875
1772456319455245000,3.4762451171875,-0.17578125,-0.199493408203125,-0.021728515625
1772456319465263000,3.48626318359375,-0.0987396240234375,-0.1945953369140625,-0.016021728515625
1772456319475282000,3.496281982421875,-0.0127716064453125,-0.163116455078125,-0.020904541015625
1772456319485300000,3.506300048828125,0.0287628173828125,-0.135589599609375,-0.0284881591796875
1772456319495319000,3.516319091796875,0.0520782470703125,-0.1288909912109375,-0.0305023193359375
1772456319505337000,3.526337158203125,0.0517120361328125,-0.1383514404296875,-0.035491943359375
1772456319515355100,3.536355224609375,0.01800537109375,-0.136932373046875,-0.03021240234375
1772456319525374200,3.546374267578125,-0.0681915283203125,-0.1251678466796875,-0.0219573974609375
1772456319535392000,3.55639208984375,-0.20745849609375,-0.1256561279296875,-0.0347900390625
1772456319545411000,3.5664111328125,-0.332733154296875,-0.1268157958984375,-0.0211029052734375
1772456319555428900,3.576428955078125,-0.4440155029296875,-0.13360595703125,0.0010528564453125
1772456319565448000,3.586447998046875,-0.5175628662109375,-0.1344146728515625,0.0262298583984375
1772456319575466200,3.59646630859375,-0.583160400390625,-0.1493988037109375,0.053131103515625
1772456319585485000,3.606485107421875,-0.6607513427734375,-0.1710205078125,0.03765869140625
1772456319595503000,3.616503173828125,-0.7439727783203125,-0.1979217529296875,0.0081787109375
1772456319605522200,3.626522216796875,-0.8017578125,-0.21221923828125,-0.0516510009765625
1772456319615540000,3.6365400390625,-0.9362945556640625,-0.203216552734375,-0.111053466796875
1772456319625559000,3.64655908203125,-1.256866455078125,-0.2010040283203125,-0.2132110595703125
1772456319635577000,3.6565771484375,-1.733306884765625,-0.219970703125,-0.306243896484375
1772456319645595100,3.66659521484375,-2.13720703125,-0.3015594482421875,-0.3992767333984375
1772456319655614200,3.6766142578125,-2.25518798828125,-0.3493194580078125,-0.4079132080078125
1772456319665632000,3.686632080078125,-2.1634521484375,-0.2611541748046875,-0.3129730224609375
1772456319675651000,3.696651123046875,-2.12774658203125,-0.1304779052734375,-0.0933380126953125
1772456319685669000,3.706669189453125,-2.16571044921875,-0.0552825927734375,0.1093292236328125
1772456319695688000,3.71668798828125,-2.1999969482421875,0.00677490234375,0.2497406005859375
1772456319705706200,3.726706298828125,-2.240570068359375,0.0309600830078125,0.29766845703125
1772456319715725000,3.73672509765625,-2.3199462890625,0.0320587158203125,0.302642822265625
1772456319725743000,3.7467431640625,-2.329345703125,0.05181884765625,0.3391265869140625
1772456319735762200,3.75676220703125,-2.143585205078125,0.0183868408203125,0.34967041015625
1772456319745780000,3.766780029296875,-1.8468475341796875,-0.047027587890625,0.3061370849609375
1772456319755798000,3.776798095703125,-1.5716552734375,-0.12188720703125,0.2288818359375
1772456319765817000,3.786817138671875,-1.2440338134765625,-0.1896209716796875,0.1152496337890625
1772456319775835100,3.796835205078125,-0.8633270263671875,-0.2288055419921875,0.011810302734375
1772456319785854200,3.806854248046875,-0.555755615234375,-0.2121429443359375,-0.059814453125
1772456319795872000,3.8168720703125,-0.2999114990234375,-0.1726531982421875,-0.09912109375
1772456319805891000,3.82689111328125,-0.1013031005859375,-0.1668243408203125,-0.1114654541015625
1772456319815909000,3.8369091796875,0.0164794921875,-0.1822509765625,-0.1155242919921875
1772456319825928000,3.846927978515625,0.0821990966796875,-0.16400146484375,-0.101348876953125
1772456319835946000,3.856946044921875,0.08331298828125,-0.1118927001953125,-0.0566558837890625
1772456319845965000,3.866965087890625,0.083343505859375,-0.0652923583984375,-0.0341033935546875
1772456319855983000,3.876983154296875,0.0831298828125,-0.0301361083984375,-0.0496826171875
1772456319866001200,3.887001220703125,0.042327880859375,-0.0018310546875,-0.0623779296875
1772456319876020000,3.89702001953125,-0.0310211181640625,-0.010467529296875,-0.06805419921875
1772456319886038000,3.9070380859375,-0.1142730712890625,-0.0420684814453125,-0.0679168701171875
1772456319896057000,3.91705712890625,-0.20391845703125,-0.0525665283203125,-0.0372314453125
1772456319906075000,3.927074951171875,-0.30206298828125,-0.07421875,-0.0226898193359375
1772456319916094000,3.937093994140625,-0.386810302734375,-0.1051788330078125,-0.011077880859375
1772456319926112300,3.9471123046875,-0.4096832275390625,-0.1235504150390625,0.01324462890625
1772456319936130800,3.957130859375,-0.4239349365234375,-0.1251068115234375,0.0348663330078125
1772456319946148600,3.967148681640625,-0.462158203125,-0.1439971923828125,0.039581298828125
1772456319956167700,3.977167724609375,-0.4855499267578125,-0.16314697265625,0.0557708740234375
1772456319966185700,3.987185791015625,-0.51861572265625,-0.18389892578125,0.073699951171875
1772456319976204500,3.99720458984375,-0.60723876953125,-0.2191162109375,0.0835418701171875
1772456319986222800,4.007222900390625,-0.812957763671875,-0.2645416259765625,0.0589752197265625
1772456319996240600,4.01724072265625,-1.110565185546875,-0.314849853515625,-0.00689697265625
1772456320006259700,4.027259765625,-1.4698486328125,-0.330902099609375,-0.0908355712890625
1772456320016277800,4.03727783203125,-1.901214599609375,-0.3443450927734375,-0.18975830078125
1772456320026296600,4.047296630859375,-2.3033905029296875,-0.3998870849609375,-0.3138275146484375
1772456320036314600,4.057314697265625,-2.4392242431640625,-0.3754425048828125,-0.370391845703125
1772456320046333700,4.067333740234375,-2.41485595703125,-0.204803466796875,-0.32244873046875
1772456320056351700,4.077351806640625,-2.4465789794921875,-0.0512847900390625,-0.1552581787109375
1772456320066370800,4.087370849609375,-2.508636474609375,0.0237579345703125,-0.0100860595703125
1772456320076388600,4.097388671875,-2.46954345703125,0.053802490234375,0.0693817138671875
1772456320086407700,4.10740771484375,-2.348175048828125,0.08648681640625,0.09967041015625
1772456320096425700,4.11742578125,-2.2634429931640625,0.128662109375,0.1321563720703125
1772456320106443500,4.127443603515625,-2.2534637451171875,0.1501312255859375,0.1586151123046875
1772456320116462600,4.137462646484375,-2.1639251708984375,0.1102294921875,0.1622772216796875
1772456320126480600,4.147480712890625,-1.88153076171875,0.0335540771484375,0.1531829833984375
1772456320136499700,4.157499755859375,-1.4756011962890625,-0.031646728515625,0.11724853515625
1772456320146517800,4.167517822265625,-1.06756591796875,-0.065032958984375,0.0733489990234375
1772456320156536600,4.17753662109375,-0.683502197265625,-0.0998687744140625,0.0134429931640625
1772456320166554600,4.1875546875,-0.3271484375,-0.1424560546875,-0.0419464111328125
1772456320176573700,4.19757373046875,-0.04583740234375,-0.1978759765625,-0.076873779296875
1772456320186591700,4.207591796875,0.1021575927734375,-0.2451019287109375,-0.1049652099609375
1772456320196610800,4.21761083984375,0.095550537109375,-0.24603271484375,-0.092559814453125
1772456320206628900,4.22762890625,0.033355712890625,-0.228363037109375,-0.087921142578125
1772456320216646700,4.237646728515625,-0.0063629150390625,-0.1875,-0.0444488525390625
1772456320226665700,4.247665771484375,-0.0702667236328125,-0.1490631103515625,-0.031524658203125
1772456320236683500,4.25768359375,-0.139739990234375,-0.130035400390625,-0.0504150390625
1772456320246702600,4.26770263671875,-0.1531219482421875,-0.113067626953125,-0.0514068603515625
1772456320256721000,4.277720947265625,-0.1494598388671875,-0.0811920166015625,-0.038238525390625
1772456320266739700,4.28773974609375,-0.1635894775390625,-0.055145263671875,-0.03125
1772456320276757800,4.2977578125,-0.1661529541015625,-0.042694091796875,-0.0180511474609375
1772456320286776800,4.30777685546875,-0.1903228759765625,-0.044219970703125,-0.00146484375
1772456320296794600,4.317794677734375,-0.2168731689453125,-0.06280517578125,0.0184173583984375
1772456320306813700,4.327813720703125,-0.271697998046875,-0.0827178955078125,0.042510986328125
1772456320316831500,4.33783154296875,-0.361968994140625,-0.1166229248046875,0.05859375
1772456320326850600,4.3478505859375,-0.464996337890625,-0.1437225341796875,0.0576324462890625
1772456320336868900,4.357868896484375,-0.5430908203125,-0.179229736328125,0.04052734375
1772456320346886700,4.36788671875,-0.6462860107421875,-0.221038818359375,0.016937255859375
1772456320356905700,4.37790576171875,-0.8306121826171875,-0.242401123046875,-0.013885498046875
1772456320366923800,4.387923828125,-1.076171875,-0.2353363037109375,-0.0423126220703125
1772456320376942600,4.397942626953125,-1.404388427734375,-0.231170654296875,-0.0823974609375
1772456320386960600,4.407960693359375,-1.7607269287109375,-0.265960693359375,-0.1281890869140625
1772456320396979700,4.417979736328125,-2.021575927734375,-0.3255767822265625,-0.1688385009765625
1772456320406997800,4.427997802734375,-2.043853759765625,-0.331268310546875,-0.2157135009765625
1772456320417016800,4.438016845703125,-1.89923095703125,-0.21990966796875,-0.2082061767578125
1772456320427034600,4.44803466796875,-1.805145263671875,-0.0839691162109375,-0.093475341796875
1772456320437053700,4.4580537109375,-1.8874664306640625,-0.0087432861328125,-0.0279083251953125
1772456320447071700,4.46807177734375,-2.00299072265625,0.0342254638671875,0.002288818359375
1772456320457089500,4.478089599609375,-2.14019775390625,0.06719970703125,0.01263427734375
1772456320467108600,4.488108642578125,-2.3553009033203125,0.086151123046875,-0.0063934326171875
1772456320477126700,4.498126708984375,-2.5403289794921875,0.073089599609375,-0.0315093994140625
1772456320487145700,4.508145751953125,-2.4471435546875,0.02960205078125,-0.052886962890625
1772456320497163800,4.518163818359375,-2.0798187255859375,-0.0247650146484375,-0.037994384765625
1772456320507182600,4.5281826171875,-1.7239532470703125,-0.0835113525390625,-0.0287628173828125
1772456320517200600,4.53820068359375,-1.3549652099609375,-0.1304168701171875,-0.0291748046875
1772456320527219700,4.5482197265625,-0.975830078125,-0.152740478515625,-0.037567138671875
1772456320537237800,4.55823779296875,-0.609466552734375,-0.1567230224609375,-0.030548095703125
1772456320547256800,4.5682568359375,-0.28997802734375,-0.16265869140625,-0.00341796875
1772456320557274600,4.578274658203125,-0.1134490966796875,-0.1745758056640625,0.0239715576171875
1772456320567293700,4.588293701171875,-0.0450897216796875,-0.163726806640625,0.04827880859375
1772456320577311700,4.598311767578125,-0.0110931396484375,-0.147735595703125,0.073577880859375
1772456320587329500,4.60832958984375,0.0195465087890625,-0.1344757080078125,0.07574462890625
1772456320597348600,4.6183486328125,0.0652618408203125,-0.11407470703125,0.0732574462890625
1772456320607367000,4.628366943359375,0.138092041015625,-0.0838775634765625,0.03759765625
1772456320617385700,4.6383857421875,0.19549560546875,-0.042755126953125,-0.0243682861328125
1772456320627403800,4.64840380859375,0.1542205810546875,-0.0421905517578125,-0.0634918212890625
1772456320637422800,4.6584228515625,0.0532073974609375,-0.056884765625,-0.09112548828125
1772456320647440600,4.668440673828125,-0.1287994384765625,-0.0693206787109375,-0.1073760986328125
1772456320657459700,4.678459716796875,-0.3339385986328125,-0.0927276611328125,-0.120513916015625
1772456320667477500,4.6884775390625,-0.4608001708984375,-0.1407623291015625,-0.13818359375
1772456320677495800,4.698495849609375,-0.5383758544921875,-0.1999359130859375,-0.1623992919921875
1772456320687515000,4.708514892578125,-0.653472900390625,-0.20855712890625,-0.150787353515625
1772456320697532700,4.71853271484375,-0.729156494140625,-0.1824188232421875,-0.152496337890625
1772456320707551700,4.7285517578125,-0.733673095703125,-0.1816558837890625,-0.13751220703125
1772456320717569500,4.738569580078125,-0.727569580078125,-0.2142333984375,-0.1237640380859375
1772456320727588600,4.748588623046875,-0.71539306640625,-0.2353515625,-0.0972442626953125
1772456320737606700,4.758606689453125,-0.732330322265625,-0.221954345703125,-0.0671844482421875
1772456320747625500,4.76862548828125,-0.8478546142578125,-0.2005615234375,-0.0587310791015625
1772456320757643800,4.778643798828125,-1.136627197265625,-0.182342529296875,-0.039794921875
1772456320767662800,4.788662841796875,-1.667572021484375,-0.2355499267578125,-0.0339813232421875
1772456320777680600,4.7986806640625,-2.16339111328125,-0.353515625,-0.0730133056640625
1772456320787699700,4.80869970703125,-2.3133392333984375,-0.3593597412109375,-0.088409423828125
1772456320797717800,4.8187177734375,-2.2816314697265625,-0.21331787109375,-0.0239410400390625
1772456320807735800,4.82873583984375,-2.3333282470703125,-0.0984649658203125,0.082427978515625
1772456320817754600,4.838754638671875,-2.4425048828125,-0.0438079833984375,0.098480224609375
1772456320827772700,4.848772705078125,-2.48175048828125,0.004791259765625,0.08843994140625
1772456320837791700,4.858791748046875,-2.4511260986328125,0.0186004638671875,0.07769775390625
1772456320847809800,4.868809814453125,-2.480377197265625,0.0074005126953125,0.08380126953125
1772456320857828600,4.87882861328125,-2.4988250732421875,-0.028778076171875,0.09161376953125
1772456320867846700,4.8888466796875,-2.311676025390625,-0.069366455078125,0.1205291748046875
1772456320877865700,4.89886572265625,-1.901824951171875,-0.108123779296875,0.1352081298828125
1772456320887883800,4.9088837890625,-1.39361572265625,-0.160614013671875,0.1049346923828125
1772456320897902800,4.91890283203125,-0.88189697265625,-0.184906005859375,0.0670318603515625
1772456320907920600,4.928920654296875,-0.440277099609375,-0.1977386474609375,0.0118408203125
1772456320917938700,4.938938720703125,-0.115753173828125,-0.187591552734375,-0.03912353515625
1772456320927957800,4.948957763671875,0.0807952880859375,-0.162200927734375,-0.0660858154296875
1772456320937975600,4.9589755859375,0.11041259765625,-0.1710357666015625,-0.088043212890625
1772456320947994600,4.96899462890625,0.073822021484375,-0.1846771240234375,-0.06927490234375
1772456320958013000,4.979012939453125,0.0460052490234375,-0.1722564697265625,-0.0254974365234375
1772456320968031700,4.98903173828125,0.0215911865234375,-0.1442108154296875,0.00048828125
1772456320978049800,4.9990498046875,0.0006256103515625,-0.0978240966796875,-0.00189208984375
1772456320988068900,5.00906884765625,0.0223541259765625,-0.053680419921875,-0.0287017822265625
1772456320998086700,5.019086669921875,0.065338134765625,-0.028411865234375,-0.0653076171875
1772456321008105700,5.029105712890625,0.0416717529296875,-0.0156707763671875,-0.0901947021484375
1772456321018123500,5.03912353515625,-0.0609130859375,-0.0099945068359375,-0.112274169921875
1772456321028141800,5.049141845703125,-0.2172698974609375,-0.017364501953125,-0.1065521240234375
1772456321038161000,5.059160888671875,-0.3677215576171875,-0.0507659912109375,-0.0840606689453125
1772456321048178700,5.0691787109375,-0.453369140625,-0.09295654296875,-0.0593719482421875
1772456321058197800,5.07919775390625,-0.501739501953125,-0.1204833984375,-0.02520751953125
1772456321068215800,5.0892158203125,-0.4924468994140625,-0.1327056884765625,0.0027008056640625
1772456321078234600,5.099234619140625,-0.484893798828125,-0.140838623046875,0.010589599609375
1772456321088252700,5.109252685546875,-0.549957275390625,-0.1845550537109375,-0.0263671875
1772456321098271700,5.119271728515625,-0.650482177734375,-0.2361602783203125,-0.061065673828125
1772456321108289800,5.129289794921875,-0.774658203125,-0.252960205078125,-0.0808563232421875
1772456321118308900,5.139308837890625,-0.906097412109375,-0.2613067626953125,-0.103485107421875
1772456321128326700,5.14932666015625,-1.1202850341796875,-0.26129150390625,-0.1448516845703125
1772456321138345700,5.159345703125,-1.482635498046875,-0.2759246826171875,-0.169708251953125
1772456321148363800,5.16936376953125,-1.9613494873046875,-0.3563690185546875,-0.2213897705078125
1772456321158381800,5.1793818359375,-2.283966064453125,-0.4474639892578125,-0.2786407470703125
1772456321168400600,5.189400634765625,-2.2560882568359375,-0.3707733154296875,-0.2705078125
1772456321178418700,5.199418701171875,-2.1583251953125,-0.2078704833984375,-0.116058349609375
1772456321188437800,5.209437744140625,-2.228240966796875,-0.120208740234375,0.0206298828125
1772456321198455800,5.219455810546875,-2.33538818359375,-0.0890350341796875,0.094970703125
1772456321208474600,5.229474609375,-2.3590087890625,-0.0525665283203125,0.14715576171875
1772456321218492700,5.23949267578125,-2.363616943359375,-0.006591796875,0.1648712158203125
1772456321228511700,5.24951171875,-2.3948974609375,0.01904296875,0.14837646484375
1772456321238529800,5.25952978515625,-2.372344970703125,0.017974853515625,0.1075592041015625
1772456321248548900,5.269548828125,-2.115264892578125,-0.0171661376953125,0.079193115234375
1772456321258566700,5.279566650390625,-1.650848388671875,-0.060638427734375,0.0472869873046875
1772456321268584700,5.289584716796875,-1.16900634765625,-0.09503173828125,0.0304412841796875
1772456321278603800,5.299603759765625,-0.7468109130859375,-0.1233978271484375,0.0113677978515625
1772456321288621600,5.30962158203125,-0.402008056640625,-0.1396636962890625,-0.016021728515625
1772456321298640600,5.319640625,-0.1515350341796875,-0.150054931640625,-0.0518951416015625
1772456321308659000,5.329658935546875,0.029815673828125,-0.15374755859375,-0.06427001953125
1772456321318677800,5.339677734375,0.1266937255859375,-0.1614990234375,-0.0616912841796875
1772456321328695800,5.34969580078125,0.144256591796875,-0.165679931640625,-0.03753662109375
1772456321338715000,5.35971484375,0.1158447265625,-0.1417694091796875,-0.0140838623046875
1772456321348732700,5.369732666015625,0.0494232177734375,-0.1218109130859375,-0.017852783203125
1772456321358751700,5.379751708984375,0.0288848876953125,-0.083221435546875,-0.0259246826171875
1772456321368769500,5.38976953125,0.0395965576171875,-0.044830322265625,-0.0336761474609375
1772456321378788600,5.39978857421875,-0.0171661376953125,-0.04180908203125,-0.0276336669921875
1772456321388807000,5.409806884765625,-0.1074371337890625,-0.042083740234375,-0.0154571533203125
1772456321398824700,5.41982470703125,-0.203369140625,-0.037689208984375,-0.0020294189453125
1772456321408843800,5.42984375,-0.2759246826171875,-0.0396728515625,0.0095367431640625
1772456321418861600,5.439861572265625,-0.3355255126953125,-0.06549072265625,0.02081298828125
1772456321428880600,5.449880615234375,-0.382171630859375,-0.1267852783203125,0.0322113037109375
1772456321438898700,5.459898681640625,-0.4306488037109375,-0.1795196533203125,0.0434112548828125
1772456321448917500,5.46991748046875,-0.523223876953125,-0.2193603515625,0.0461883544921875
1772456321458935800,5.479935791015625,-0.638671875,-0.2249603271484375,0.0347900390625
1772456321468955000,5.489954833984375,-0.7191925048828125,-0.242034912109375,-0.00177001953125
1772456321478972700,5.49997265625,-0.776641845703125,-0.261810302734375,-0.04327392578125
1772456321488991700,5.50999169921875,-0.892242431640625,-0.29071044921875,-0.102203369140625
1772456321499009800,5.520009765625,-1.114593505859375,-0.2830810546875,-0.1680755615234375
1772456321509027800,5.53002783203125,-1.558319091796875,-0.2664337158203125,-0.211334228515625
1772456321519046700,5.540046630859375,-2.1290435791015625,-0.3437957763671875,-0.2854156494140625
1772456321529064700,5.550064697265625,-2.44769287109375,-0.4400787353515625,-0.3027191162109375
1772456321539083800,5.560083740234375,-2.40679931640625,-0.4054412841796875,-0.23431396484375
1772456321549101800,5.570101806640625,-2.2967376708984375,-0.2764434814453125,-0.07025146484375
1772456321559120600,5.58012060546875,-2.330474853515625,-0.1922760009765625,0.0549468994140625
1772456321569138700,5.590138671875,-2.3784332275390625,-0.134765625,0.0829925537109375
1772456321579157800,5.60015771484375,-2.2881622314453125,-0.047637939453125,0.110626220703125
1772456321589175800,5.61017578125,-2.168975830078125,-0.000579833984375,0.121826171875
1772456321599195000,5.62019482421875,-2.1726837158203125,0.01580810546875,0.1410369873046875
1772456321609212700,5.630212646484375,-2.22711181640625,0.0045623779296875,0.15673828125
1772456321619230700,5.640230712890625,-2.1232757568359375,-0.0430145263671875,0.159912109375
1772456321629249800,5.650249755859375,-1.7830810546875,-0.100006103515625,0.14837646484375
1772456321639267600,5.660267578125,-1.3713531494140625,-0.1475830078125,0.1170806884765625
1772456321649286700,5.67028662109375,-1.0002899169921875,-0.181915283203125,0.0831298828125
1772456321659304700,5.6803046875,-0.6490020751953125,-0.1922607421875,0.022796630859375
1772456321669323800,5.69032373046875,-0.33404541015625,-0.180450439453125,-0.03094482421875
1772456321679341800,5.700341796875,-0.150421142578125,-0.1357879638671875,-0.0589141845703125
1772456321689360600,5.710360595703125,-0.08734130859375,-0.094207763671875,-0.0788421630859375
1772456321699378700,5.720378662109375,-0.09088134765625,-0.0658416748046875,-0.085479736328125
1772456321709397800,5.730397705078125,-0.0956878662109375,-0.059295654296875,-0.0894775390625
1772456321719415600,5.74041552734375,-0.0514068603515625,-0.0531463623046875,-0.0931854248046875
1772456321729434600,5.7504345703125,0.005767822265625,-0.0478515625,-0.0744171142578125
1772456321739453000,5.760452880859375,0.0753936767578125,-0.0450286865234375,-0.062164306640625
1772456321749470700,5.770470703125,0.12060546875,-0.0419769287109375,-0.0339508056640625
1772456321759489800,5.78048974609375,0.129974365234375,-0.07086181640625,-0.01068115234375
1772456321769507600,5.790507568359375,0.0985260009765625,-0.1003875732421875,0.011322021484375
1772456321779526700,5.800526611328125,0.0290374755859375,-0.104248046875,0.0327301025390625
1772456321789544700,5.810544677734375,-0.0942840576171875,-0.1097412109375,0.0465087890625
1772456321799563500,5.8205634765625,-0.3110198974609375,-0.1221771240234375,0.03338623046875
1772456321809581800,5.830581787109375,-0.5426483154296875,-0.13873291015625,0.013671875
1772456321819601000,5.840600830078125,-0.6759490966796875,-0.162841796875,0.003173828125
1772456321829618700,5.85061865234375,-0.6911163330078125,-0.1804656982421875,-0.008453369140625
1772456321839637800,5.8606376953125,-0.6626739501953125,-0.193450927734375,-0.011566162109375
1772456321849655600,5.870655517578125,-0.68182373046875,-0.231781005859375,-0.0395050048828125
1772456321859673900,5.880673828125,-0.7232818603515625,-0.2777252197265625,-0.07135009765625
1772456321869693000,5.89069287109375,-0.804229736328125,-0.297760009765625,-0.111724853515625
1772456321879710700,5.900710693359375,-0.9988250732421875,-0.2924346923828125,-0.1887359619140625
1772456321889729800,5.910729736328125,-1.3507537841796875,-0.305938720703125,-0.2489776611328125
1772456321899747800,5.920747802734375,-1.82830810546875,-0.3557281494140625,-0.3183135986328125
1772456321909766700,5.9307666015625,-2.2189483642578125,-0.43670654296875,-0.3648834228515625
1772456321919784700,5.94078466796875,-2.29412841796875,-0.458251953125,-0.347137451171875
1772456321929804000,5.950803955078125,-2.1633758544921875,-0.352142333984375,-0.2279815673828125
1772456321939822000,5.960822021484375,-2.0751953125,-0.248382568359375,-0.0300445556640625
1772456321949841000,5.9708408203125,-2.0609130859375,-0.20086669921875,0.08404541015625
1772456321959859000,5.98085888671875,-2.014495849609375,-0.182342529296875,0.1307373046875
1772456321969877000,5.990876953125,-1.97015380859375,-0.12371826171875,0.1745147705078125
1772456321979896000,6.00089599609375,-2.11712646484375,-0.0843505859375,0.216033935546875
1772456321989913900,6.010913818359375,-2.3761138916015625,-0.0941009521484375,0.22406005859375
1772456321999933000,6.020932861328125,-2.4002227783203125,-0.1151580810546875,0.1891632080078125
1772456322009951000,6.030950927734375,-2.076446533203125,-0.142547607421875,0.127044677734375
1772456322019970000,6.040969970703125,-1.532073974609375,-0.170928955078125,0.06597900390625
1772456322029988000,6.050988037109375,-1.013519287109375,-0.2011871337890625,0.0049896240234375
1772456322040007000,6.0610068359375,-0.601165771484375,-0.1969757080078125,-0.050994873046875
1772456322050025000,6.07102490234375,-0.291961669921875,-0.1757965087890625,-0.0829010009765625
1772456322060044000,6.0810439453125,-0.098175048828125,-0.15875244140625,-0.0887298583984375
1772456322070061800,6.091061767578125,-0.0034027099609375,-0.1471710205078125,-0.0693359375
1772456322080081000,6.101080810546875,-0.0003814697265625,-0.13446044921875,-0.0445098876953125
1772456322090099200,6.11109912109375,-0.03717041015625,-0.1299591064453125,-0.0362091064453125
1772456322100117000,6.121116943359375,-0.03326416015625,-0.128814697265625,-0.01544189453125
1772456322110136000,6.131135986328125,0.02899169921875,-0.121612548828125,0.0055084228515625
1772456322120153900,6.14115380859375,0.0540618896484375,-0.11395263671875,0.0087127685546875
1772456322130173000,6.1511728515625,0.0457305908203125,-0.1060791015625,0.0226287841796875
1772456322140191000,6.16119091796875,0.022247314453125,-0.1142120361328125,0.0222625732421875
1772456322150209800,6.171209716796875,-0.06298828125,-0.1091461181640625,0.0174407958984375
1772456322160228000,6.18122802734375,-0.1807861328125,-0.110931396484375,0.02288818359375
1772456322170247200,6.1912470703125,-0.3011322021484375,-0.124542236328125,0.0056610107421875
1772456322180265000,6.201264892578125,-0.3921356201171875,-0.14117431640625,-0.0067138671875
1772456322190284000,6.211283935546875,-0.4281463623046875,-0.16015625,-0.0087738037109375
1772456322200301800,6.2213017578125,-0.4461517333984375,-0.1537628173828125,0.0040130615234375
1772456322210320000,6.23131982421875,-0.47357177734375,-0.15130615234375,0.000640869140625
1772456322220339000,6.2413388671875,-0.497039794921875,-0.1620025634765625,-0.0145721435546875
1772456322230356000,6.25135595703125,-0.535675048828125,-0.1962127685546875,-0.047454833984375
1772456322240375000,6.261375,-0.582611083984375,-0.222686767578125,-0.0821533203125
1772456322250392800,6.271392822265625,-0.677032470703125,-0.2507476806640625,-0.1146087646484375
1772456322260412000,6.281411865234375,-0.901641845703125,-0.256378173828125,-0.1676788330078125
1772456322270430200,6.29143017578125,-1.348876953125,-0.2564544677734375,-0.2781829833984375
1772456322280449000,6.301448974609375,-2.0142974853515625,-0.316436767578125,-0.40704345703125
1772456322290467000,6.311467041015625,-2.5331878662109375,-0.4712371826171875,-0.514190673828125
1772456322300486100,6.321486083984375,-2.5606842041015625,-0.5330963134765625,-0.549468994140625
1772456322310504000,6.33150390625,-2.4436798095703125,-0.3963165283203125,-0.3708343505859375
1772456322320523000,6.34152294921875,-2.4903106689453125,-0.2701263427734375,-0.125213623046875
1772456322330540800,6.351540771484375,-2.59429931640625,-0.205078125,0.0149383544921875
1772456322340560000,6.361559814453125,-2.53045654296875,-0.1523590087890625,0.1103515625
1772456322350578200,6.371578125,-2.31011962890625,-0.1329345703125,0.14935302734375
1772456322360596000,6.381595947265625,-2.2117462158203125,-0.118133544921875,0.18743896484375
1772456322370615000,6.391614990234375,-2.2848663330078125,-0.100494384765625,0.2263336181640625
1772456322380632800,6.4016328125,-2.2047576904296875,-0.1039276123046875,0.223175048828125
1772456322390652000,6.41165185546875,-1.8178253173828125,-0.1622772216796875,0.1727447509765625
1772456322400670000,6.421669921875,-1.339080810546875,-0.214752197265625,0.0915679931640625
1772456322410688800,6.431688720703125,-0.8038482666015625,-0.218902587890625,0.030487060546875
1772456322420707000,6.44170703125,-0.311767578125,-0.2064666748046875,-0.064178466796875
1772456322430726100,6.45172607421875,0.0264129638671875,-0.179168701171875,-0.101837158203125
1772456322440744000,6.461743896484375,0.15325927734375,-0.1558837890625,-0.112945556640625
1772456322450763000,6.471762939453125,0.1365509033203125,-0.1449432373046875,-0.10467529296875
1772456322460781000,6.481781005859375,0.0950927734375,-0.1287384033203125,-0.082977294921875
1772456322470800000,6.4917998046875,0.07989501953125,-0.10992431640625,-0.058746337890625
1772456322480818000,6.50181787109375,0.07830810546875,-0.09185791015625,-0.0260772705078125
1772456322490836000,6.5118359375,0.0787506103515625,-0.0899200439453125,0.0028533935546875
1772456322500855000,6.52185498046875,0.0764007568359375,-0.074066162109375,0.0113525390625
1772456322510873000,6.531873046875,0.069427490234375,-0.049285888671875,0.0090179443359375
1772456322520892000,6.541891845703125,0.009918212890625,-0.0355377197265625,-0.0027618408203125
1772456322530910000,6.551909912109375,-0.0674591064453125,-0.0160064697265625,-0.0203704833984375
1772456322540929000,6.561928955078125,-0.1239166259765625,0.004425048828125,-0.027313232421875
1772456322550947000,6.571947021484375,-0.200958251953125,-0.0071258544921875,-0.0392303466796875
1772456322560966000,6.5819658203125,-0.329986572265625,-0.040008544921875,-0.04351806640625
1772456322570985000,6.59198486328125,-0.463104248046875,-0.08050537109375,-0.04119873046875
1772456322581004000,6.602004150390625,-0.5350189208984375,-0.1225433349609375,-0.022918701171875
1772456322591022000,6.61202197265625,-0.5735626220703125,-0.17779541015625,-0.034393310546875
1772456322601040000,6.622039794921875,-0.623046875,-0.229644775390625,-0.057037353515625
1772456322611059000,6.632058837890625,-0.664642333984375,-0.2713165283203125,-0.06427001953125
1772456322621077000,6.642076904296875,-0.6837921142578125,-0.3262786865234375,-0.0912933349609375
1772456322631095800,6.652095703125,-0.77130126953125,-0.36273193359375,-0.1446685791015625
1772456322641114000,6.662114013671875,-1.0816497802734375,-0.3779144287109375,-0.228546142578125
1772456322651133200,6.67213330078125,-1.63897705078125,-0.3845672607421875,-0.3157196044921875
1772456322661151000,6.68215087890625,-2.2869415283203125,-0.466796875,-0.403717041015625
1772456322671170000,6.692170166015625,-2.63958740234375,-0.58349609375,-0.461212158203125
1772456322681187800,6.702187744140625,-2.5250701904296875,-0.5089874267578125,-0.4274749755859375
1772456322691207000,6.71220703125,-2.3370361328125,-0.2842864990234375,-0.2073822021484375
1772456322701225000,6.722224853515625,-2.262054443359375,-0.1824798583984375,-0.067718505859375
1772456322711243000,6.732242919921875,-2.20556640625,-0.1393890380859375,-0.0224151611328125
1772456322721262000,6.742261962890625,-2.08453369140625,-0.0805206298828125,0.0468597412109375
1772456322731280100,6.752280029296875,-2.0303497314453125,-0.0616912841796875,0.12628173828125
1772456322741299000,6.762298828125,-2.1436004638671875,-0.043243408203125,0.20782470703125
1772456322751317000,6.77231689453125,-2.3011627197265625,-0.0318145751953125,0.2523345947265625
1772456322761336000,6.782336181640625,-2.234588623046875,-0.0649261474609375,0.233856201171875
1772456322771353900,6.792353759765625,-1.7913665771484375,-0.1341094970703125,0.180572509765625
1772456322781373000,6.802373046875,-1.230865478515625,-0.20196533203125,0.1248321533203125
1772456322791391000,6.812390869140625,-0.75384521484375,-0.2413330078125,0.0985565185546875
1772456322801410000,6.82241015625,-0.3844451904296875,-0.26483154296875,0.0470428466796875
1772456322811428000,6.832427978515625,-0.115386962890625,-0.255859375,0.009796142578125
1772456322821447000,6.842447021484375,0.02587890625,-0.223175048828125,-0.0110321044921875
1772456322831465000,6.85246484375,0.0473175048828125,-0.1804351806640625,-0.0238037109375
1772456322841482800,6.862482666015625,0.0446319580078125,-0.129119873046875,-0.0330963134765625
1772456322851501800,6.872501708984375,0.0088043212890625,-0.0836029052734375,-0.0338897705078125
1772456322861520100,6.88252001953125,-0.01971435546875,-0.0615997314453125,-0.0180511474609375
1772456322871539000,6.8925390625,-0.040924072265625,-0.0342254638671875,0.0031890869140625
1772456322881557000,6.902556884765625,-0.0043182373046875,-0.0140533447265625,0.0188751220703125
1772456322891576000,6.912576171875,0.0194854736328125,0.0045013427734375,0.0043182373046875
1772456322901593900,6.92259375,-0.0495147705078125,0.019775390625,-0.0202484130859375
1772456322911613000,6.932613037109375,-0.129913330078125,0.0290374755859375,-0.0426177978515625
1772456322921631000,6.942630859375,-0.1486968994140625,0.0292510986328125,-0.0407257080078125
1772456322931650000,6.952650146484375,-0.1743621826171875,0.0228118896484375,-0.0420379638671875
1772456322941668000,6.962668212890625,-0.243255615234375,0.0084686279296875,-0.0325775146484375
1772456322951687000,6.97268701171875,-0.3624725341796875,-0.0060882568359375,-0.010498046875
1772456322961705000,6.982705078125,-0.47076416015625,-0.0272216796875,0.00579833984375
1772456322971722800,6.99272265625,-0.5116119384765625,-0.0514678955078125,0.007568359375
1772456322981741800,7.002741943359375,-0.5234375,-0.1009063720703125,-0.00360107421875
1772456322991760100,7.012760009765625,-0.586273193359375,-0.161834716796875,-0.0296173095703125
1772456323001779000,7.022779052734375,-0.756591796875,-0.208709716796875,-0.055023193359375
1772456323011797000,7.032796875,-0.983978271484375,-0.261199951171875,-0.12860107421875
1772456323021816000,7.042816162109375,-1.27606201171875,-0.305267333984375,-0.200225830078125
1772456323031833900,7.052833740234375,-1.7396240234375,-0.33441162109375,-0.3043212890625
1772456323041853000,7.06285302734375,-2.1972503662109375,-0.407196044921875,-0.42803955078125
1772456323051870700,7.07287060546875,-2.214080810546875,-0.4392547607421875,-0.465789794921875
1772456323061889800,7.082889892578125,-2.0405120849609375,-0.3254547119140625,-0.3823089599609375
1772456323071908000,7.092908203125,-2.091064453125,-0.1972503662109375,-0.2209625244140625
1772456323081927000,7.102927001953125,-2.284027099609375,-0.10052490234375,-0.1163787841796875
1772456323091945000,7.112945068359375,-2.4674835205078125,-0.033111572265625,-0.0363311767578125
1772456323101963000,7.122962890625,-2.6276397705078125,0.0298309326171875,0.0306549072265625
1772456323111981800,7.13298193359375,-2.743011474609375,0.083343505859375,0.088134765625
1772456323122000000,7.142999755859375,-2.6729278564453125,0.079681396484375,0.1319122314453125
1772456323132019000,7.15301904296875,-2.326934814453125,0.0049896240234375,0.14794921875
1772456323142037000,7.163037109375,-1.8354034423828125,-0.1057586669921875,0.1009521484375
1772456323152056000,7.17305615234375,-1.3056488037109375,-0.19696044921875,0.0452117919921875
1772456323162073900,7.183073974609375,-0.8881378173828125,-0.285491943359375,-0.0001678466796875
1772456323172093000,7.193093017578125,-0.592681884765625,-0.3424224853515625,-0.04022216796875
1772456323182111000,7.203111083984375,-0.34765625,-0.3350372314453125,-0.088623046875
1772456323192129800,7.2131298828125,-0.18914794921875,-0.2901153564453125,-0.1109619140625
1772456323202147800,7.22314794921875,-0.1435394287109375,-0.249603271484375,-0.1345367431640625
1772456323212167000,7.2331669921875,-0.165283203125,-0.20440673828125,-0.124603271484375
1772456323222185000,7.24318505859375,-0.2057952880859375,-0.1762847900390625,-0.09686279296875
1772456323232203000,7.253203125,-0.169677734375,-0.1562957763671875,-0.0711517333984375
1772456323242221800,7.263221923828125,-0.067138671875,-0.1241455078125,-0.03851318359375
1772456323252240000,7.273239990234375,0.05609130859375,-0.08612060546875,-0.0048828125
1772456323262259000,7.283259033203125,0.1437835693359375,-0.0467987060546875,0.024871826171875
1772456323272277000,7.293277099609375,0.0777587890625,-0.0418243408203125,0.0346221923828125
1772456323282296000,7.303296142578125,-0.004791259765625,-0.051422119140625,0.0447998046875
1772456323292314000,7.313314208984375,-0.039947509765625,-0.0304107666015625,0.0569610595703125
1772456323302333000,7.3233330078125,-0.114501953125,-0.0283966064453125,0.049957275390625
1772456323312351000,7.33335107421875,-0.2693328857421875,-0.058013916015625,0.0265350341796875
1772456323322370000,7.3433701171875,-0.4543914794921875,-0.0918731689453125,0.000732421875
1772456323332387800,7.353387939453125,-0.5691986083984375,-0.1056060791015625,-0.033782958984375
1772456323342407000,7.363406982421875,-0.619720458984375,-0.1076202392578125,-0.0835723876953125
1772456323352425000,7.373425048828125,-0.6355133056640625,-0.124420166015625,-0.132415771484375
1772456323362443000,7.383443115234375,-0.6789398193359375,-0.1521148681640625,-0.1656494140625
1772456323372462000,7.393462158203125,-0.8040771484375,-0.180755615234375,-0.199188232421875
1772456323382480000,7.40347998046875,-1.002685546875,-0.20440673828125,-0.234771728515625
1772456323392499000,7.4134990234375,-1.2881927490234375,-0.2270965576171875,-0.2905731201171875
1772456323402516700,7.423516845703125,-1.668243408203125,-0.255218505859375,-0.3639984130859375
1772456323412535800,7.433535888671875,-1.9633026123046875,-0.331298828125,-0.398193359375
1772456323422554000,7.44355419921875,-2.021697998046875,-0.4203033447265625,-0.364288330078125
1772456323432573000,7.453572998046875,-1.9117431640625,-0.3726654052734375,-0.2630767822265625
1772456323442591000,7.463591064453125,-1.924835205078125,-0.224090576171875,-0.11083984375
1772456323452610000,7.473610107421875,-2.09674072265625,-0.1330108642578125,0.0015411376953125
1772456323462627800,7.4836279296875,-2.275360107421875,-0.0594024658203125,0.077423095703125
1772456323472646000,7.49364599609375,-2.4865875244140625,0.072479248046875,0.1153411865234375
1772456323482664700,7.503664794921875,-2.7696380615234375,0.174835205078125,0.164947509765625
1772456323492683000,7.51368310546875,-2.923919677734375,0.1526641845703125,0.1562957763671875
1772456323502702000,7.5237021484375,-2.7875213623046875,0.0867767333984375,0.1442413330078125
1772456323512720000,7.533719970703125,-2.4375152587890625,0.0101470947265625,0.1611480712890625
1772456323522739000,7.543739013671875,-2.0253143310546875,-0.0799407958984375,0.119415283203125
1772456323532757000,7.553757080078125,-1.5395050048828125,-0.1531524658203125,0.04888916015625
1772456323542775800,7.56377587890625,-0.9253692626953125,-0.2119140625,-0.0258331298828125
1772456323552793900,7.5737939453125,-0.3618927001953125,-0.1985321044921875,-0.0811309814453125
1772456323562813000,7.58381298828125,0.0204925537109375,-0.1584930419921875,-0.0950927734375
1772456323572831000,7.5938310546875,0.201507568359375,-0.1191558837890625,-0.0753021240234375
1772456323582850000,7.60385009765625,0.243621826171875,-0.09130859375,-0.0423431396484375
1772456323592867800,7.613867919921875,0.2124176025390625,-0.077667236328125,-0.006134033203125
1772456323602887000,7.623886962890625,0.1483917236328125,-0.050933837890625,0.0291290283203125
1772456323612905000,7.633905029296875,0.0745849609375,-0.0159454345703125,0.0531768798828125
1772456323622923000,7.643923095703125,0.0403594970703125,0.0026092529296875,0.0508270263671875
1772456323632942000,7.653942138671875,0.043731689453125,0.023223876953125,0.0264739990234375
1772456323642960000,7.6639599609375,0.065093994140625,0.0356292724609375,0.0147552490234375
1772456323652979000,7.67397900390625,0.0471954345703125,0.0088043212890625,0.002227783203125
1772456323662997000,7.6839970703125,0.0001373291015625,-0.006805419921875,-0.017578125
1772456323673015800,7.694015869140625,-0.055267333984375,0.0098876953125,-0.003448486328125
1772456323683033900,7.704033935546875,-0.0994720458984375,-0.0047149658203125,-0.008209228515625
1772456323693053000,7.714052978515625,-0.155181884765625,-0.023101806640625,-0.0185394287109375
1772456323703071000,7.724071044921875,-0.234283447265625,-0.0423431396484375,-0.030181884765625
1772456323713090000,7.734090087890625,-0.3347930908203125,-0.0688018798828125,-0.04046630859375
1772456323723108000,7.744108154296875,-0.3997039794921875,-0.096282958984375,-0.05096435546875
1772456323733127000,7.754126953125,-0.4463348388671875,-0.1166229248046875,-0.0764007568359375
1772456323743145000,7.76414501953125,-0.4972991943359375,-0.137908935546875,-0.1112518310546875
1772456323753162800,7.774162841796875,-0.5852203369140625,-0.1812744140625,-0.151153564453125
1772456323763181800,7.784181884765625,-0.798370361328125,-0.226226806640625,-0.182220458984375
1772456323773200100,7.7942001953125,-1.065338134765625,-0.231903076171875,-0.1851348876953125
1772456323783219000,7.804218994140625,-1.323486328125,-0.2489166259765625,-0.19732666015625
1772456323793237000,7.814237060546875,-1.622650146484375,-0.2811431884765625,-0.2378997802734375
1772456323803256000,7.824256103515625,-1.9842071533203125,-0.3632049560546875,-0.266937255859375
1772456323813273900,7.83427392578125,-2.2701873779296875,-0.476654052734375,-0.2783050537109375
1772456323823293000,7.84429296875,-2.36468505859375,-0.4674072265625,-0.2368621826171875
1772456323833310700,7.854310791015625,-2.335845947265625,-0.303436279296875,-0.0908050537109375
1772456323843329800,7.864329833984375,-2.385040283203125,-0.1896514892578125,0.086700439453125
1772456323853348000,7.87434814453125,-2.494781494140625,-0.1222686767578125,0.1910552978515625
1772456323863367000,7.884366943359375,-2.5395660400390625,-0.007293701171875,0.2883453369140625
1772456323873385000,7.894385009765625,-2.5559844970703125,0.1154937744140625,0.395782470703125
1772456323883402800,7.90440283203125,-2.72711181640625,0.1616668701171875,0.4637451171875
1772456323893421800,7.914421875,-2.9274749755859375,0.15667724609375,0.468231201171875
1772456323903440000,7.92443994140625,-2.66961669921875,0.078857421875,0.4068450927734375
1772456323913459000,7.934458984375,-2.146209716796875,-0.0598297119140625,0.29925537109375
1772456323923477000,7.94447705078125,-1.5777740478515625,-0.1865234375,0.166107177734375
1772456323933495300,7.954495361328125,-0.9794158935546875,-0.2187347412109375,0.03875732421875
1772456323943513000,7.96451318359375,-0.464996337890625,-0.2074737548828125,-0.0469970703125
1772456323953532200,7.9745322265625,-0.0493011474609375,-0.2149810791015625,-0.104034423828125
1772456323963550200,7.98455029296875,0.170074462890625,-0.231231689453125,-0.128204345703125
1772456323973569300,7.9945693359375,0.206787109375,-0.211700439453125,-0.116119384765625
1772456323983587300,8.00458740234375,0.167083740234375,-0.1711883544921875,-0.0910491943359375
1772456323993606400,8.0146064453125,0.117431640625,-0.125091552734375,-0.067901611328125
1772456324003624200,8.024624267578124,0.07562255859375,-0.0794830322265625,-0.032135009765625
1772456324013642200,8.034642333984374,0.090484619140625,-0.042633056640625,-0.017578125
1772456324023661000,8.0446611328125,0.0558319091796875,-0.0182647705078125,-0.0204010009765625
1772456324033679400,8.054679443359374,0.010498046875,0.000732421875,-0.0265350341796875
1772456324043698400,8.064698486328124,-0.013580322265625,0.02777099609375,-0.0208282470703125
1772456324053716200,8.07471630859375,-0.0736846923828125,0.0294342041015625,-0.026702880859375
1772456324063735300,8.0847353515625,-0.1533355712890625,0.038848876953125,-0.017822265625
1772456324073753000,8.094753173828124,-0.21282958984375,0.025146484375,0.0022735595703125
1772456324083772200,8.104772216796874,-0.2463836669921875,-0.0211181640625,0.00732421875
1772456324093790200,8.114790283203124,-0.241851806640625,-0.07666015625,0.0129852294921875
1772456324103809000,8.12480908203125,-0.2631072998046875,-0.0940399169921875,0.018524169921875
1772456324113827300,8.134827392578124,-0.3203582763671875,-0.10009765625,0.0057220458984375
1772456324123846400,8.144846435546874,-0.38104248046875,-0.140533447265625,-0.018280029296875
1772456324133864200,8.1548642578125,-0.4856414794921875,-0.1819000244140625,-0.0337982177734375
1772456324143883300,8.16488330078125,-0.630340576171875,-0.21649169921875,-0.0439605712890625
1772456324153901300,8.1749013671875,-0.77313232421875,-0.268463134765625,-0.058929443359375
1772456324163919000,8.184919189453124,-0.922515869140625,-0.31927490234375,-0.0828094482421875
1772456324173938200,8.194938232421874,-1.1321563720703125,-0.33636474609375,-0.1397247314453125
1772456324183956200,8.204956298828124,-1.4269561767578125,-0.3636627197265625,-0.248016357421875
1772456324193975300,8.214975341796874,-1.8264007568359375,-0.372161865234375,-0.3513641357421875
1772456324203993300,8.224993408203124,-2.192352294921875,-0.410675048828125,-0.4178466796875
1772456324214012200,8.23501220703125,-2.282928466796875,-0.437469482421875,-0.40216064453125
1772456324224030200,8.2450302734375,-2.16986083984375,-0.359039306640625,-0.267791748046875
1772456324234049300,8.25504931640625,-2.118621826171875,-0.235504150390625,-0.06854248046875
1772456324244067000,8.265067138671874,-2.1815185546875,-0.17755126953125,0.1009979248046875
1772456324254086100,8.275086181640624,-2.2794036865234375,-0.1218719482421875,0.2131195068359375
1772456324264104200,8.285104248046874,-2.350677490234375,-0.02777099609375,0.2913360595703125
1772456324274123300,8.295123291015624,-2.4984893798828125,0.083038330078125,0.34344482421875
1772456324284141300,8.305141357421874,-2.6703643798828125,0.1299285888671875,0.3048248291015625
1772456324294159000,8.3151591796875,-2.564605712890625,0.1146087646484375,0.2338409423828125
1772456324304178200,8.32517822265625,-2.1932220458984375,0.0645599365234375,0.1674346923828125
1772456324314196200,8.3351962890625,-1.7520294189453125,-0.003509521484375,0.121673583984375
1772456324324215300,8.34521533203125,-1.3288726806640625,-0.0765380859375,0.0852203369140625
1772456324334233300,8.3552333984375,-0.8720245361328125,-0.14398193359375,0.023529052734375
1772456324344252400,8.36525244140625,-0.389617919921875,-0.1698455810546875,-0.0350494384765625
1772456324354270200,8.375270263671876,0.02880859375,-0.177093505859375,-0.064117431640625
1772456324364289300,8.385289306640624,0.2528228759765625,-0.1723785400390625,-0.0728759765625
1772456324374307000,8.39530712890625,0.2809600830078125,-0.16265869140625,-0.0649261474609375
1772456324384326100,8.405326171875,0.22637939453125,-0.138397216796875,-0.02960205078125
1772456324394344400,8.415344482421874,0.1812744140625,-0.120941162109375,0.00787353515625
1772456324404363300,8.42536328125,0.145721435546875,-0.110565185546875,0.0412139892578125
1772456324414381300,8.43538134765625,0.0695343017578125,-0.101654052734375,0.0372467041015625
1772456324424400400,8.445400390625,0.0060882568359375,-0.080413818359375,0.0355072021484375
1772456324434418200,8.455418212890624,-0.0543670654296875,-0.0575103759765625,0.0067138671875
1772456324444436200,8.465436279296876,-0.1518707275390625,-0.05517578125,-0.0084381103515625
1772456324454455000,8.475455078125,-0.2405853271484375,-0.0615997314453125,-0.0297698974609375
1772456324464473300,8.485473388671876,-0.2890167236328125,-0.0567474365234375,-0.0196075439453125
1772456324474492400,8.495492431640624,-0.3482513427734375,-0.069915771484375,-0.012939453125
1772456324484510200,8.50551025390625,-0.3537750244140625,-0.10345458984375,-0.0233154296875
1772456324494529300,8.515529296875,-0.3544464111328125,-0.114044189453125,-0.0193634033203125
1772456324504547000,8.525547119140626,-0.3660736083984375,-0.1245269775390625,-0.03558349609375
1772456324514566100,8.535566162109374,-0.3827667236328125,-0.128753662109375,-0.0425872802734375
1772456324524584200,8.545584228515626,-0.4552154541015625,-0.141845703125,-0.0673980712890625
1772456324534603000,8.55560302734375,-0.5421142578125,-0.1678314208984375,-0.1107330322265625
1772456324544621300,8.565621337890626,-0.6346893310546875,-0.1717987060546875,-0.1342010498046875
1772456324554640400,8.575640380859374,-0.87969970703125,-0.1809844970703125,-0.2054290771484375
1772456324564658200,8.585658203125,-1.2350616455078125,-0.20135498046875,-0.2896728515625
1772456324574676200,8.59567626953125,-1.641937255859375,-0.224365234375,-0.3627166748046875
1772456324584695300,8.6056953125,-2.0831451416015625,-0.2963409423828125,-0.4256439208984375
1772456324594713000,8.615713134765626,-2.2959747314453125,-0.40966796875,-0.426300048828125
1772456324604732200,8.625732177734376,-2.2080841064453125,-0.4129486083984375,-0.3401031494140625
1772456324614750200,8.635750244140626,-2.1526031494140625,-0.2523956298828125,-0.1712188720703125
1772456324624769300,8.645769287109376,-2.2447662353515625,-0.1235198974609375,-0.031768798828125
1772456324634787300,8.655787353515626,-2.3605804443359375,-0.0778045654296875,0.046966552734375
1772456324644806100,8.66580615234375,-2.4275970458984375,-0.0302734375,0.0747528076171875
1772456324654824200,8.67582421875,-2.4721221923828125,0.0552215576171875,0.1035919189453125
1772456324664843300,8.68584326171875,-2.5637054443359375,0.15338134765625,0.1391143798828125
1772456324674861300,8.695861328125,-2.54974365234375,0.16937255859375,0.1310577392578125
1772456324684880400,8.70588037109375,-2.2807464599609375,0.11944580078125,0.1144866943359375
1772456324694898200,8.715898193359376,-1.8421478271484375,0.0355987548828125,0.0908203125
1772456324704917200,8.725917236328126,-1.3635711669921875,-0.0318145751953125,0.0778350830078125
1772456324714935300,8.735935302734376,-0.90716552734375,-0.09027099609375,0.0608673095703125
1772456324724953000,8.745953125,-0.4560394287109375,-0.1689910888671875,0.0231781005859375
1772456324734972200,8.75597216796875,-0.0887451171875,-0.2146453857421875,-0.0155487060546875
1772456324744990500,8.765990478515626,0.1828765869140625,-0.23150634765625,-0.026611328125
1772456324755009300,8.77600927734375,0.3063507080078125,-0.253814697265625,-0.028350830078125
1772456324765027300,8.78602734375,0.276824951171875,-0.2594146728515625,-0.0255279541015625
1772456324775046400,8.79604638671875,0.189361572265625,-0.24237060546875,-0.0117340087890625
1772456324785064200,8.806064208984376,0.073944091796875,-0.224700927734375,-0.008819580078125
1772456324795083300,8.816083251953126,-0.0476837158203125,-0.191864013671875,-0.0229034423828125
1772456324805101000,8.82610107421875,-0.152618408203125,-0.154083251953125,-0.047454833984375
1772456324815120100,8.8361201171875,-0.21771240234375,-0.12530517578125,-0.0553741455078125
1772456324825138400,8.846138427734376,-0.2731475830078125,-0.1002197265625,-0.0616302490234375
1772456324835157200,8.8561572265625,-0.3198394775390625,-0.0818939208984375,-0.0414276123046875
1772456324845175300,8.86617529296875,-0.370086669921875,-0.0915069580078125,-0.0146636962890625
1772456324855193000,8.876193115234376,-0.391937255859375,-0.121246337890625,0.017303466796875
1772456324865212200,8.886212158203126,-0.380157470703125,-0.1313323974609375,0.0396881103515625
1772456324875230200,8.896230224609376,-0.3684539794921875,-0.131439208984375,0.0564117431640625
1772456324885249000,8.9062490234375,-0.386627197265625,-0.1279754638671875,0.046112060546875
1772456324895267300,8.916267333984376,-0.4601898193359375,-0.1274871826171875,0.033966064453125
1772456324905286400,8.926286376953126,-0.598358154296875,-0.1378173828125,0.02215576171875
1772456324915304200,8.93630419921875,-0.7536163330078125,-0.15673828125,-0.0363311767578125
1772456324925323300,8.9463232421875,-0.872222900390625,-0.2068023681640625,-0.0731658935546875
1772456324935341600,8.956341552734376,-1.0302581787109375,-0.2526702880859375,-0.13427734375
1772456324945360600,8.966360595703126,-1.347412109375,-0.2911376953125,-0.1726226806640625
1772456324955378700,8.976378662109376,-1.7621002197265625,-0.3793182373046875,-0.2518157958984375
1772456324965397500,8.9863974609375,-2.1007232666015625,-0.47821044921875,-0.3377227783203125
1772456324975415800,8.996415771484376,-2.111328125,-0.4954376220703125,-0.3613739013671875
1772456324985435000,9.006434814453126,-1.9223480224609375,-0.3261871337890625,-0.2696380615234375
1772456324995452700,9.01645263671875,-1.8987884521484375,-0.194488525390625,-0.16259765625
1772456325005470700,9.026470703125,-2.00408935546875,-0.15185546875,-0.0820770263671875
1772456325015489500,9.036489501953126,-2.1327667236328125,-0.048309326171875,-0.00616455078125
1772456325025507600,9.046507568359376,-2.3534088134765625,0.0652313232421875,0.0771636962890625
1772456325035526700,9.056526611328126,-2.63702392578125,0.1256103515625,0.1182708740234375
1772456325045544700,9.066544677734376,-2.769561767578125,0.1197662353515625,0.1307373046875
1772456325055563800,9.076563720703126,-2.5664215087890625,0.1056365966796875,0.1307830810546875
1772456325065581800,9.086581787109376,-2.101409912109375,0.05194091796875,0.1321563720703125
1772456325075600600,9.0966005859375,-1.6072540283203125,-0.04937744140625,0.0953521728515625
1772456325085618700,9.10661865234375,-1.181427001953125,-0.1027374267578125,0.057220458984375
1772456325095637800,9.1166376953125,-0.7317657470703125,-0.1181182861328125,0.0313873291015625
1772456325105655600,9.126655517578126,-0.2635498046875,-0.1453094482421875,0.00799560546875
1772456325115674600,9.136674560546876,0.0797271728515625,-0.1594390869140625,0.0046844482421875
1772456325125692700,9.146692626953126,0.18438720703125,-0.1854248046875,0.0011138916015625
1772456325135711700,9.156711669921876,0.1626739501953125,-0.205535888671875,0.0091094970703125
1772456325145729800,9.166729736328126,0.1300811767578125,-0.2065582275390625,0.0307769775390625
1772456325155747600,9.17674755859375,0.09173583984375,-0.20733642578125,0.0473480224609375
1772456325165766700,9.1867666015625,0.03253173828125,-0.1981048583984375,0.054473876953125
1772456325175784700,9.19678466796875,-0.0453338623046875,-0.1758270263671875,0.0308074951171875
1772456325185803800,9.2068037109375,-0.1069793701171875,-0.158782958984375,-0.01953125
1772456325195821800,9.21682177734375,-0.1652679443359375,-0.1236572265625,-0.0569000244140625
1772456325205840600,9.226840576171876,-0.2022552490234375,-0.079681396484375,-0.0856475830078125
1772456325215858700,9.236858642578126,-0.22149658203125,-0.0614776611328125,-0.0989532470703125
1772456325225877800,9.246877685546876,-0.2580108642578125,-0.06231689453125,-0.1124725341796875
1772456325235895600,9.2568955078125,-0.273773193359375,-0.0530242919921875,-0.092926025390625
1772456325245914600,9.26691455078125,-0.2834930419921875,-0.071807861328125,-0.0663909912109375
1772456325255933000,9.276932861328126,-0.3115692138671875,-0.10687255859375,-0.052764892578125
1772456325265951700,9.28695166015625,-0.37799072265625,-0.1179962158203125,-0.0409393310546875
1772456325275969800,9.2969697265625,-0.473297119140625,-0.1396331787109375,-0.0339202880859375
1772456325285988900,9.30698876953125,-0.5215911865234375,-0.1682281494140625,-0.0499420166015625
1772456325296006700,9.317006591796876,-0.58441162109375,-0.1840057373046875,-0.0875091552734375
1772456325306024700,9.327024658203126,-0.726287841796875,-0.1986083984375,-0.1359710693359375
1772456325316043500,9.33704345703125,-0.9649200439453125,-0.238555908203125,-0.1800689697265625
1772456325326061800,9.347061767578126,-1.33056640625,-0.2827606201171875,-0.23858642578125
1772456325336081000,9.357080810546876,-1.738372802734375,-0.3430023193359375,-0.276214599609375
1772456325346098700,9.3670986328125,-2.0558013916015625,-0.4274749755859375,-0.260284423828125
1772456325356117800,9.37711767578125,-2.1559295654296875,-0.4371795654296875,-0.22308349609375
1772456325366135600,9.387135498046876,-2.0987548828125,-0.291534423828125,-0.1438140869140625
1772456325376154600,9.397154541015626,-2.05029296875,-0.1992950439453125,-0.04132080078125
1772456325386172700,9.407172607421876,-2.1617889404296875,-0.1508636474609375,0.0323486328125
1772456325396191500,9.41719140625,-2.477081298828125,-0.052276611328125,0.0788726806640625
1772456325406209800,9.427209716796876,-2.75982666015625,0.097900390625,0.1185760498046875
1772456325416228900,9.437228759765626,-2.815765380859375,0.210845947265625,0.142608642578125
1772456325426246700,9.44724658203125,-2.644927978515625,0.2212982177734375,0.1139373779296875
1772456325436265700,9.457265625,-2.3115997314453125,0.169586181640625,0.07843017578125
1772456325446283500,9.467283447265626,-1.9183349609375,0.1037750244140625,0.0526885986328125
1772456325456301600,9.477301513671875,-1.5021514892578125,0.0249176025390625,0.046630859375
1772456325466320600,9.487320556640626,-1.091949462890625,-0.048797607421875,0.0491943359375
1772456325476338700,9.497338623046875,-0.6988372802734375,-0.1209564208984375,0.04534912109375
1772456325486357800,9.507357666015626,-0.3568267822265625,-0.1744384765625,0.02197265625
1772456325496375800,9.517375732421876,-0.0718994140625,-0.1875457763671875,0.0112152099609375
1772456325506394600,9.52739453125,0.1002349853515625,-0.206512451171875,0.0154876708984375
1772456325516412700,9.53741259765625,0.212982177734375,-0.244354248046875,0.0186920166015625
1772456325526431700,9.547431640625,0.2914581298828125,-0.270294189453125,0.017669677734375
1772456325536449800,9.55744970703125,0.273040771484375,-0.2693023681640625,0.034759521484375
1772456325546468600,9.567468505859376,0.177215576171875,-0.2310333251953125,0.0379486083984375
1772456325556486700,9.577486572265625,0.06292724609375,-0.1867218017578125,0.020904541015625
1772456325566505700,9.587505615234376,-0.07110595703125,-0.174591064453125,-0.004364013671875
1772456325576523800,9.597523681640626,-0.2694854736328125,-0.1643524169921875,-0.0519561767578125
1772456325586542600,9.60754248046875,-0.4219512939453125,-0.1366729736328125,-0.0818328857421875
1772456325596560600,9.617560546875,-0.486175537109375,-0.0964508056640625,-0.0829925537109375
1772456325606578700,9.62757861328125,-0.493865966796875,-0.069915771484375,-0.0714569091796875
1772456325616597800,9.63759765625,-0.478912353515625,-0.0616455078125,-0.048858642578125
1772456325626615800,9.64761572265625,-0.42388916015625,-0.065673828125,-0.0354156494140625
1772456325636634600,9.657634521484376,-0.3413543701171875,-0.0770416259765625,-0.0348663330078125
1772456325646652700,9.667652587890625,-0.27313232421875,-0.097503662109375,-0.0575408935546875
1772456325656671700,9.677671630859376,-0.300018310546875,-0.0951690673828125,-0.0349578857421875
1772456325666689500,9.687689453125,-0.4326629638671875,-0.1475830078125,-0.0326995849609375
1772456325676708600,9.69770849609375,-0.6785888671875,-0.2243804931640625,-0.0589752197265625
1772456325686727000,9.707726806640625,-1.02337646484375,-0.272308349609375,-0.0811309814453125
1772456325696745700,9.717745849609376,-1.36602783203125,-0.312713623046875,-0.150665283203125
1772456325706763800,9.727763671875,-1.799163818359375,-0.3580474853515625,-0.2498016357421875
1772456325716782800,9.737782958984376,-2.216461181640625,-0.42919921875,-0.31304931640625
1772456325726800600,9.747800537109375,-2.3719024658203125,-0.4921417236328125,-0.3262481689453125
1772456325736819700,9.75781982421875,-2.290008544921875,-0.3981475830078125,-0.2595672607421875
1772456325746837500,9.76783740234375,-2.287445068359375,-0.196014404296875,-0.0804443359375
1772456325756855800,9.777855712890625,-2.389556884765625,-0.0797576904296875,0.10113525390625
1772456325766875000,9.787875,-2.452850341796875,-0.0217742919921875,0.21160888671875
1772456325776892700,9.797892578125,-2.4893798828125,0.04376220703125,0.2717132568359375
1772456325786911700,9.807911865234376,-2.6027069091796875,0.138824462890625,0.2845916748046875
1772456325796929500,9.817929443359375,-2.739898681640625,0.21185302734375,0.2513580322265625
1772456325806948600,9.827948486328125,-2.596282958984375,0.1613311767578125,0.1670379638671875
1772456325816966700,9.837966552734375,-2.126068115234375,0.045684814453125,0.0639801025390625
1772456325826985500,9.8479853515625,-1.436065673828125,-0.031463623046875,-0.0130615234375
1772456325837003800,9.858003662109375,-0.8552703857421875,-0.07861328125,-0.042205810546875
1772456325847022800,9.86802294921875,-0.4193267822265625,-0.1298065185546875,-0.0501251220703125
1772456325857040600,9.87804052734375,-0.07830810546875,-0.17364501953125,-0.059600830078125
1772456325867059700,9.888059814453126,0.13153076171875,-0.1656036376953125,-0.0172576904296875
1772456325877077500,9.898077392578125,0.23828125,-0.1705474853515625,0.0126800537109375
1772456325887096600,9.9080966796875,0.25701904296875,-0.1766204833984375,0.0308990478515625
1772456325897115000,9.918114990234375,0.240509033203125,-0.178955078125,0.0578155517578125
1772456325907133700,9.9281337890625,0.198272705078125,-0.1683807373046875,0.056640625
1772456325917151700,9.93815185546875,0.1605377197265625,-0.1393890380859375,0.045135498046875
1772456325927169800,9.948169677734375,0.08587646484375,-0.10980224609375,0.0103912353515625
1772456325937187800,9.958187744140625,-0.0201568603515625,-0.06884765625,-0.0151214599609375
1772456325947206100,9.9682060546875,-0.084625244140625,-0.0341339111328125,-0.0366058349609375
1772456325957225000,9.978224853515625,-0.11376953125,-0.0245819091796875,-0.046539306640625
1772456325967243000,9.988242919921875,-0.1763916015625,-0.020416259765625,-0.0348358154296875
1772456325977262000,9.998261962890625,-0.233062744140625,-0.024017333984375,-0.0059814453125
1772456325987280000,10.00827978515625,-0.2763671875,-0.0229644775390625,0.027099609375
1772456325997299000,10.018298828125,-0.31048583984375,-0.026275634765625,0.065643310546875
1772456326007316700,10.028316650390625,-0.3162841796875,-0.060150146484375,0.0890045166015625
1772456326017335800,10.038335693359375,-0.3370208740234375,-0.096832275390625,0.09515380859375
1772456326027354000,10.04835400390625,-0.4183197021484375,-0.113739013671875,0.071380615234375
1772456326037373000,10.058373046875,-0.584075927734375,-0.1350860595703125,0.03173828125
1772456326047391000,10.068390869140625,-0.75372314453125,-0.189605712890625,-0.02874755859375
1772456326057410000,10.07841015625,-0.951324462890625,-0.2171783447265625,-0.0812530517578125
1772456326067427800,10.088427734375,-1.2902984619140625,-0.24371337890625,-0.1993255615234375
1772456326077446000,10.09844580078125,-1.7253265380859375,-0.27435302734375,-0.353668212890625
1772456326087465000,10.10846484375,-2.134124755859375,-0.3096466064453125,-0.4433441162109375
1772456326097483000,10.11848291015625,-2.4261932373046875,-0.4083099365234375,-0.502288818359375
1772456326107502000,10.128502197265625,-2.4619140625,-0.3758544921875,-0.40008544921875
1772456326117520000,10.138519775390625,-2.478729248046875,-0.1898651123046875,-0.1763153076171875
1772456326127539000,10.1485390625,-2.55523681640625,-0.0888671875,0.0497894287109375
1772456326137557000,10.158556884765625,-2.6545562744140625,-0.0345458984375,0.1803741455078125
1772456326147575800,10.168575927734375,-2.8502349853515625,0.0607147216796875,0.23822021484375
1772456326157593900,10.17859375,-3.1392974853515625,0.23541259765625,0.2540283203125
1772456326167613000,10.188613037109375,-3.2300872802734375,0.3466644287109375,0.2510986328125
1772456326177631000,10.198630859375,-2.838836669921875,0.256195068359375,0.2275238037109375
1772456326187650000,10.208650146484375,-2.1319732666015625,0.077850341796875,0.1791229248046875
1772456326197667800,10.218667724609375,-1.488311767578125,-0.032318115234375,0.143463134765625
1772456326207687000,10.22868701171875,-0.907806396484375,-0.1261138916015625,0.0951080322265625
1772456326217705000,10.238705078125,-0.3184356689453125,-0.2390594482421875,0.018890380859375
1772456326227723000,10.248722900390625,0.1623077392578125,-0.28448486328125,-0.037994384765625
1772456326237741000,10.258740966796875,0.3874053955078125,-0.2783660888671875,-0.03424072265625
1772456326247760100,10.268760009765625,0.3666839599609375,-0.2620849609375,-0.01025390625
1772456326257778000,10.27877783203125,0.212493896484375,-0.2350006103515625,0.0106353759765625
1772456326267796000,10.2887958984375,0.0917205810546875,-0.193634033203125,0.025115966796875
1772456326277814800,10.298814697265625,0.0048370361328125,-0.1549224853515625,0.015655517578125
1772456326287833000,10.3088330078125,-0.0780487060546875,-0.128631591796875,0.0118255615234375
1772456326297852200,10.31885205078125,-0.1479339599609375,-0.086944580078125,-0.00604248046875
1772456326307870000,10.328869873046875,-0.23138427734375,-0.0698394775390625,-0.0217437744140625
1772456326317889000,10.338888916015625,-0.29815673828125,-0.0609130859375,-0.0340728759765625
1772456326327906800,10.34890673828125,-0.2886199951171875,-0.0332489013671875,-0.020904541015625
1772456326337926000,10.35892578125,-0.2396392822265625,-0.02569580078125,-0.0009002685546875
1772456326347944000,10.36894384765625,-0.199920654296875,-0.0382232666015625,0.00347900390625
1772456326357962800,10.378962646484375,-0.14166259765625,-0.0413665771484375,0.0043487548828125
1772456326367981000,10.38898095703125,-0.1199188232421875,-0.0424652099609375,-0.0087432861328125
1772456326378000100,10.399000244140625,-0.1572265625,-0.0432586669921875,-0.018524169921875
1772456326388018000,10.409017822265625,-0.2277679443359375,-0.0490875244140625,-0.039215087890625
1772456326398037000,10.419037109375,-0.295196533203125,-0.065826416015625,-0.0550537109375
1772456326408054800,10.4290546875,-0.3521881103515625,-0.0968475341796875,-0.0666656494140625
1772456326418073900,10.439073974609375,-0.3650054931640625,-0.1479644775390625,-0.0791778564453125
1772456326428092000,10.449091796875,-0.4417572021484375,-0.198760986328125,-0.0986480712890625
1772456326438110000,10.45910986328125,-0.6507415771484375,-0.2388153076171875,-0.1119842529296875
1772456326448129000,10.46912890625,-0.9170989990234375,-0.3087921142578125,-0.14385986328125
1772456326458147000,10.47914697265625,-1.2633819580078125,-0.3681182861328125,-0.1665802001953125
1772456326468166000,10.489165771484375,-1.6746826171875,-0.3914642333984375,-0.183258056640625
1772456326478184000,10.499183837890625,-2.0016021728515625,-0.4319610595703125,-0.199951171875
1772456326488203000,10.509203125,-2.1007080078125,-0.468170166015625,-0.2083892822265625
1772456326498220800,10.519220703125,-2.0176239013671875,-0.390350341796875,-0.136260986328125
1772456326508240000,10.529239990234375,-1.982421875,-0.249664306640625,-0.01458740234375
1772456326518258000,10.5392578125,-2.0210418701171875,-0.188873291015625,0.066925048828125
1772456326528277000,10.549277099609375,-2.0451202392578125,-0.11822509765625,0.12664794921875
1772456326538295000,10.559294921875,-2.00689697265625,-0.03851318359375,0.165008544921875
1772456326548313900,10.56931396484375,-2.0143585205078125,-0.00689697265625,0.180511474609375
1772456326558332000,10.579331787109375,-2.017303466796875,-0.025909423828125,0.1860809326171875
1772456326568351000,10.58935107421875,-1.9260101318359375,-0.0738525390625,0.1780242919921875
1772456326578369800,10.599369873046875,-1.7671966552734375,-0.1400299072265625,0.14361572265625
1772456326588387800,10.609387939453125,-1.560516357421875,-0.210784912109375,0.1128387451171875
1772456326598407000,10.619406982421875,-1.30181884765625,-0.26318359375,0.0982513427734375
1772456326608425000,10.629425048828125,-1.0522308349609375,-0.291015625,0.0682525634765625
1772456326618444000,10.639444091796875,-0.808868408203125,-0.3130340576171875,0.0337371826171875
1772456326628461800,10.6494619140625,-0.6360931396484375,-0.3300933837890625,-0.0142364501953125
1772456326638481000,10.65948095703125,-0.5041656494140625,-0.3505401611328125,-0.04766845703125
1772456326648499000,10.6694990234375,-0.4135284423828125,-0.3431396484375,-0.0691986083984375
1772456326658517000,10.67951708984375,-0.43597412109375,-0.2881011962890625,-0.066650390625
1772456326668536000,10.6895361328125,-0.5329132080078125,-0.2432098388671875,-0.05804443359375
1772456326678554000,10.69955419921875,-0.632110595703125,-0.2245635986328125,-0.04595947265625
1772456326688573000,10.709572998046875,-0.6534576416015625,-0.189910888671875,-0.02984619140625
1772456326698591000,10.719591064453125,-0.65911865234375,-0.1662445068359375,-0.0032958984375
1772456326708610000,10.729610107421875,-0.6636962890625,-0.146331787109375,-0.010040283203125
1772456326718627800,10.7396279296875,-0.6433563232421875,-0.1269378662109375,-0.01507568359375
1772456326728647000,10.74964697265625,-0.6447601318359375,-0.0902099609375,-0.032257080078125
1772456326738665000,10.7596650390625,-0.6871185302734375,-0.0994110107421875,-0.02667236328125
1772456326748684000,10.76968408203125,-0.7136383056640625,-0.0904998779296875,-0.0368804931640625
1772456326758702000,10.7797021484375,-0.7038421630859375,-0.071441650390625,-0.014129638671875
1772456326768721000,10.789720947265625,-0.667144775390625,-0.079010009765625,-0.0223388671875
1772456326778739000,10.799739013671875,-0.6330413818359375,-0.080657958984375,-0.00091552734375
1772456326788758000,10.809758056640625,-0.6748809814453125,-0.0789642333984375,0.02752685546875
1772456326798775800,10.81977587890625,-0.7752838134765625,-0.0702362060546875,0.0504608154296875
1772456326808795000,10.829794921875,-0.85791015625,-0.0689239501953125,0.063201904296875
1772456326818813000,10.83981298828125,-0.947296142578125,-0.0813446044921875,0.062744140625
1772456326828831000,10.8498310546875,-1.0305328369140625,-0.0882415771484375,0.0446014404296875
1772456326838850000,10.85985009765625,-1.087066650390625,-0.08892822265625,0.023590087890625
1772456326848867800,10.869867919921875,-1.1147613525390625,-0.089569091796875,-0.0023345947265625
1772456326858887000,10.879886962890625,-1.136749267578125,-0.0839385986328125,-0.00518798828125
1772456326868904700,10.88990478515625,-1.1769561767578125,-0.1008758544921875,-0.00115966796875
1772456326878923800,10.899923828125,-1.1925201416015625,-0.058349609375,0.0133056640625
1772456326888942000,10.909942138671875,-1.18157958984375,-0.0009307861328125,0.0399932861328125
1772456326898961000,10.9199609375,-1.2096710205078125,0.00018310546875,0.091064453125
1772456326908979000,10.92997900390625,-1.235809326171875,-0.04266357421875,0.1081695556640625
1772456326918998000,10.939998046875,-1.1594085693359375,-0.0536041259765625,0.1318817138671875
1772456326929015800,10.950015869140625,-1.249603271484375,-0.0994873046875,0.1512451171875
1772456326939035400,10.960035400390625,-1.243896484375,-0.1890869140625,0.17047119140625
1772456326949053200,10.97005322265625,-1.145599365234375,-0.1454315185546875,0.1610260009765625
1772456326959072300,10.980072265625,-0.991943359375,-0.174407958984375,0.09454345703125
1772456326969090300,10.99009033203125,-0.9986572265625,-0.22100830078125,0.053680419921875
1772456326979109400,11.000109375,-1.1279449462890625,-0.2260894775390625,0.0288848876953125
1772456326989127400,11.01012744140625,-1.172088623046875,-0.242156982421875,0.020111083984375
1772456326999145200,11.020145263671875,-1.0937347412109375,-0.254852294921875,0.006500244140625
1772456327009164300,11.030164306640625,-0.9635467529296875,-0.2497711181640625,-0.003448486328125
