time,seconds_elapsed,z,y,x
1772456316051471400,0.072471435546875,0.2248755078345537,-0.20479237688453866,0.19301365801915527
1772456316061490200,0.082490234375,0.15538403845727441,-0.20125059435814618,0.22955464209411292
1772456316071508200,0.09250830078125,0.1581657781302929,-0.22291788922706618,0.22443894304819403
1772456316081527300,0.10252734375,0.3177285635769367,-0.2344724439477548,0.1918896772242151
1772456316091545000,0.112545166015625,0.41245851910710335,-0.1800002645259723,0.1513997089283075
1772456316101564200,0.122564208984375,0.4125841913133859,-0.10580217009400948,0.11612458920385688
1772456316111582200,0.132582275390625,0.4101461505115032,-0.11559994427524506,0.06355269044544548
1772456316121601000,0.14260107421875,0.3728209207236767,-0.18513755434919146,0.043984331483999266
1772456316131619300,0.152619384765625,0.3701537473410368,-0.28917653242927044,0.035873113017063585
1772456316141638400,0.162638427734375,0.3570733164936304,-0.3361231386518106,0.02915954118729569
1772456316151656200,0.17265625,0.27179566444158554,-0.3147309891961515,0.08641752453586087
1772456316161674200,0.18267431640625,0.19636194553375244,-0.2865695282686502,0.1525043274356518
1772456316171693000,0.192693115234375,0.11121931803822517,-0.3041117425641976,0.15965218076314777
1772456316181711000,0.202711181640625,0.0752028327614069,-0.2879767281854525,0.17059170885803177
1772456316191730200,0.212730224609375,0.18808686914145945,-0.31905878926739095,0.1918963992259465
1772456316201748200,0.222748291015625,0.4122703030586242,-0.34251419139578937,0.14119534497386776
1772456316211767300,0.232767333984375,0.5674748932957648,-0.32404015787653623,0.07045867957477457
1772456316221785300,0.242785400390625,0.6529974600195885,-0.29834910565055905,0.07285829719556496
1772456316231804200,0.25280419921875,0.7846516633212566,-0.3713665206642821,0.03385015582209453
1772456316241822200,0.262822265625,0.9671838209450244,-0.4272704499222338,-0.05422682635858655
1772456316251841300,0.27284130859375,1.2314455827504396,-0.3782159116350114,-0.05776524788411334
1772456316261859000,0.282859130859375,1.322669575986266,-0.3469409948620945,0.08076732588759623
1772456316271877400,0.29287744140625,1.3130009994089602,-0.3963299527354538,0.039852875968767326
1772456316281896200,0.302896240234375,1.3203279812961817,-0.5064056536965071,-0.02898281464721076
1772456316291914200,0.312914306640625,1.37838854059875,-0.6919714799277484,0.0027754469295497982
1772456316301933300,0.322933349609375,1.51373224606812,-0.862938798898831,-0.05531065780622884
1772456316311951000,0.332951171875,1.8331921634823083,-1.014131596211344,0.05393915025731549
1772456316321970200,0.34297021484375,2.1319658512204884,-1.0464666164964438,0.13626776151172815
1772456316331988200,0.35298828125,2.3157442095130683,-1.0007130194507539,0.2573830716749653
1772456316342007000,0.363007080078125,2.222293187877536,-0.9117717303246259,0.33579277418628334
1772456316352025300,0.373025390625,1.9210119012326001,-0.8999242753382771,0.34262733291406183
1772456316362044200,0.383044189453125,1.4077502441614866,-0.760667707274109,0.3472304793279618
1772456316372062200,0.393062255859375,0.45918695253431796,-0.5824452295430004,0.3787441732928157
1772456316382081300,0.403081298828125,-0.8553957631081343,-0.5026545575346797,0.09363366645975038
1772456316392099000,0.41309912109375,-2.0631208630532023,-0.6343260772973298,-0.22812340371459722
1772456316402118100,0.4231181640625,-2.6202707616895435,-0.8359661093644797,-0.6269412277430295
1772456316412136200,0.43313623046875,-2.234528984594345,-0.7334801328800619,-0.7872454792067408
1772456316422154200,0.443154296875,-1.3973410783499478,-0.33724699158258736,-0.5815538701938465
1772456316432173300,0.45317333984375,-1.3006582351863383,-0.03468393976511434,-0.27798578778598454
1772456316442191000,0.463191162109375,-2.527122522392869,-0.02738340749340132,-0.2045657650544308
1772456316452210200,0.473210205078125,-4.802946809449792,0.042603900843113655,-0.36330892294757067
1772456316462228200,0.483228271484375,-7.057049094042181,0.3618490064628422,-0.4210395927086472
1772456316472247000,0.4932470703125,-8.61849352387786,0.6033456499589607,-0.31850977708250283
1772456316482265300,0.503265380859375,-9.228668910259008,0.6635503451507538,-0.3534361655676737
1772456316492284400,0.513284423828125,-8.781795495852828,0.8901125639632343,-0.2506254141082987
1772456316502302200,0.52330224609375,-7.713003650301695,1.028471744796261,-0.6178772659953683
1772456316512321300,0.5333212890625,-6.533477055358886,1.2705536043018102,-1.1473464729584752
1772456316522339000,0.543339111328125,-5.686942059576511,1.8839014832392333,-1.306401162752509
1772456316532358100,0.553358154296875,-5.38274283965826,2.385983428517729,-1.166404663041234
1772456316542376200,0.563376220703125,-5.736210825136304,2.678476282420754,-1.0912623282954097
1772456316552394200,0.573394287109375,-6.514169128298759,2.952848811613023,-0.7289625093251466
1772456316562413300,0.583413330078125,-6.987792602464556,3.1157462944403287,-0.2762538128942251
1772456316572431000,0.59343115234375,-6.828484668561816,2.886167723481357,0.0057862917838618156
1772456316582450200,0.6034501953125,-6.231826350879669,2.2449530557140704,0.13190923750866204
1772456316592468200,0.61346826171875,-5.553986710548401,1.2033994918309152,0.16725049040503798
1772456316602487000,0.623487060546875,-4.6447868765383955,0.05020643000239506,-0.009957987977936863
1772456316612505000,0.633505126953125,-3.094471743482351,-0.6213279179058969,-0.27197686622738837
1772456316622524200,0.643524169921875,-1.1714748059123754,-0.9283222484353929,-0.5490992786496878
1772456316632542200,0.653542236328125,0.6892150208264589,-1.0173736468724905,-0.6090815632624551
1772456316642561300,0.663561279296875,2.2279911072582004,-1.0932383776087313,-0.5974060307769105
1772456316652579300,0.673579345703125,3.6111405786484476,-1.0505584889199584,-0.7568017525609583
1772456316662598100,0.68359814453125,4.962327808588743,-1.046051825150475,-0.6429707176543772
1772456316672616200,0.6936162109375,6.79755586181283,-1.3181402619935572,-0.35132874495964495
1772456316682634200,0.70363427734375,8.958363192114234,-1.144007830055058,-0.2737929026734084
1772456316692653000,0.713653076171875,10.50820836957097,-0.8515923522371798,-0.043324543267861004
1772456316702671400,0.72367138671875,10.902745447540283,-0.8442011460073292,0.06906067674458026
1772456316712690200,0.733690185546875,11.541906105387211,-0.926134383002296,-0.29627471052929755
1772456316722708200,0.743708251953125,11.931141569817065,-0.5944322025978938,-0.5575711927883327
1772456316732727300,0.753727294921875,11.420161886203289,-0.18629856095258146,-0.6437512735728174
1772456316742745000,0.7637451171875,10.655046113479138,-0.28521714554531497,-0.5234411788452417
1772456316752764200,0.77376416015625,9.477834225219487,-0.39802239933442324,-0.3714109808605164
1772456316762782200,0.7837822265625,8.49665052049458,-0.48033404118772594,-0.5759256185159087
1772456316772801300,0.79380126953125,7.997340231886506,-0.705002737871185,-0.6093071887118742
1772456316782819300,0.8038193359375,7.15086310377121,-0.7979599115751683,-0.36521541415601966
1772456316792838100,0.813838134765625,6.637134413710236,-0.7773870060805231,-0.34337950298823416
1772456316802856200,0.823856201171875,6.18361323185265,-1.1995861440878361,-0.052471068732440465
1772456316812874000,0.8338740234375,5.591483205249905,-1.4855325720220804,0.06385094273965805
1772456316822893000,0.84389306640625,4.744283023557067,-1.5274470292963087,0.2750426835387945
1772456316832911400,0.853911376953125,3.080401717075705,-1.6749705635115504,0.3780520628428086
1772456316842930200,0.86393017578125,1.1581383544772863,-1.5977023226529359,0.4943124072555452
1772456316852948200,0.8739482421875,-0.5113245515286922,-1.5033070059046147,0.3356276102198288
1772456316862967300,0.88396728515625,-2.304197564104199,-1.160480387558788,-0.237031955704838
1772456316872985000,0.893985107421875,-4.307407271552085,-0.6223099877458066,-0.4816004809269681
1772456316883004200,0.904004150390625,-6.054391224133968,-0.15662950847372412,-1.0013226757816969
1772456316893022200,0.914022216796875,-8.015993494430184,-0.1927500386469066,-0.9028910892546176
1772456316903041000,0.924041015625,-10.43306691160798,-1.1329610969923436,-0.6801233673542738
1772456316913059300,0.934059326171875,-11.145974358189106,-1.968466164716333,0.01559840501770377
1772456316923078400,0.944078369140625,-10.596823057091235,-1.4646958279594777,0.8214343837302178
1772456316933097200,0.95409716796875,-9.784950793889164,-0.2035015881553292,1.4935443213030695
1772456316943115300,0.964115234375,-9.596606150594353,0.8287132156267761,1.3906908266805111
1772456316953134300,0.97413427734375,-10.10913423269391,1.4750127854429185,0.8843755546811968
1772456316963152100,0.984152099609375,-10.443027164608239,1.7785957731589674,0.3162797530081123
1772456316973171200,0.994171142578125,-10.116611436706782,2.3678354851476846,0.30983028460778295
1772456316983189000,1.00418896484375,-9.748687055853008,2.7489973871067166,0.8767264281675219
1772456316993208000,1.0142080078125,-10.25156468155384,2.394540682852268,1.1310152966868132
1772456317003226400,1.024226318359375,-11.707026524960995,1.6854842126108704,1.557632178071141
1772456317013245200,1.0342451171875,-11.050651697462797,0.4227912586815655,1.7356930354997515
1772456317023263200,1.04426318359375,-7.689365585082769,-0.07427943430617451,1.7595353911191225
1772456317033282300,1.0542822265625,-3.0581033760279417,-0.27275837199389935,1.2084512953277677
1772456317043300000,1.064300048828125,1.645869848972559,-0.4554347603939473,0.41087219976373013
1772456317053319200,1.074319091796875,5.384599281179905,-0.4883139705583453,-0.4572368413798511
1772456317063337000,1.0843369140625,7.7816709438145155,-0.4388726249106228,-1.0988760912347584
1772456317073355300,1.094355224609375,8.926177663302422,-0.23536533766686915,-1.2163193252891302
1772456317083374300,1.104374267578125,9.775200384247302,-0.09168810361623764,-0.8669239960774778
1772456317093392100,1.11439208984375,10.670302134799957,0.05320084431171417,-0.4349539170969277
1772456317103411200,1.1244111328125,11.442066259497404,0.18640739162191747,-0.40904790694601834
1772456317113429200,1.13442919921875,11.710449485146999,0.2046931360274553,-0.5813515890873968
1772456317123448000,1.144447998046875,11.37582706991434,0.2628248608700931,-0.8299211301118135
1772456317133466400,1.15446630859375,11.168630426633356,0.5976489361546933,-0.840634539566934
1772456317143485200,1.164485107421875,11.305904223382472,1.3592906030274927,-0.7255895257607102
1772456317153503200,1.174503173828125,11.42892503837347,2.0002282074190676,-0.26578581130122764
1772456317163522300,1.184522216796875,10.570566333806514,1.861790481457114,-0.0066838114457437765
1772456317173540000,1.1945400390625,8.24985310370922,1.5753687641613185,0.09699973622621036
1772456317183559200,1.20455908203125,6.341575011843442,1.190775280318409,0.3366924995049834
1772456317193577200,1.2145771484375,5.017252407953142,0.9845946091469376,0.512624491678737
1772456317203595300,1.22459521484375,4.041740319123864,0.6329542044222355,0.814329739356786
1772456317213614300,1.2346142578125,3.722572662654519,0.21739771929979324,0.7080063766665756
1772456317223632100,1.244632080078125,3.273161838725209,-0.11769479766264557,0.5955151024637744
1772456317233651200,1.254651123046875,2.8524609764516353,-0.702741734136641,0.5388139949461445
1772456317243669200,1.264669189453125,2.1281553530216217,-0.7953834852159023,0.09545872646244243
1772456317253688000,1.27468798828125,1.728409015971422,-0.7627033047549426,-0.06683752080239355
1772456317263706000,1.2847060546875,2.2902970490455625,-0.7101540562197566,-0.19930757053159176
1772456317273725200,1.29472509765625,2.3327555500686166,-0.5978510345980524,-0.33714886497035623
1772456317283743200,1.3047431640625,1.5722954941958187,-0.8333744854360818,-1.1868958816017954
1772456317293762300,1.31476220703125,-1.171281329166889,-1.408804283259064,-1.806658522952348
1772456317303780000,1.324780029296875,-6.292402692395449,-2.715566534408927,-1.7659746303863821
1772456317313799200,1.334799072265625,-10.647101291954517,-3.8815982724845406,-1.8620558543950319
1772456317323817200,1.344817138671875,-12.158471485066412,-3.158713621768355,-2.222694316024333
1772456317333835000,1.3548349609375,-11.883898172605036,-1.4483181091323494,-1.442762082440406
1772456317343854000,1.36485400390625,-12.376674675530195,-0.39902985934391616,-0.31491533278711137
1772456317353872400,1.374872314453125,-12.683204968744516,0.033149989929795266,-0.2011063270492479
1772456317363891200,1.38489111328125,-11.89842003443241,0.8692695362903177,0.07538637263476848
1772456317373909200,1.3949091796875,-10.78105851150155,1.5228811826854944,-0.13126531358193605
1772456317383928300,1.40492822265625,-10.454176335132122,1.0144069060213863,-0.4345825265012681
1772456317393946000,1.414946044921875,-9.872191270446777,0.7041033778786658,-0.014203991517238317
1772456317403965200,1.424965087890625,-8.617311620616912,0.6263667888559401,0.6995991983272135
1772456317413983200,1.434983154296875,-7.007537167376279,0.08563523331806062,1.0114095508363097
1772456317424002000,1.445001953125,-6.144744279754161,-0.7514503815956414,0.7181228431418538
1772456317434020400,1.455020263671875,-6.072275255870819,-1.0252578242510557,0.9937385042630136
1772456317444039200,1.4650390625,-4.208195202171802,-0.6659104253455996,-0.35123525798991323
1772456317454057200,1.47505712890625,-1.994051418480277,0.2447548050418496,-0.5157511723319068
1772456317464075000,1.485074951171875,0.6821113263010978,0.14567176886871455,-1.085764096205309
1772456317474094000,1.495093994140625,3.4923271522194144,-0.38559418531805273,-1.0404038823913782
1772456317484112400,1.5051123046875,4.716247015640139,-0.7285846159234642,-0.3670817560171708
1772456317494131200,1.515131103515625,6.208916599935293,-1.33642147635445,-0.2080042333368212
1772456317504149200,1.525149169921875,9.567691606277227,-1.5210025293320417,-0.04208294570893049
1772456317514168300,1.535168212890625,12.95351244045496,-0.7597767497837543,-0.02715060338452458
1772456317524186000,1.54518603515625,14.739441917502878,0.25123802958130836,0.23149119964726267
1772456317534205200,1.555205078125,14.819778606021403,0.7588799470745027,-0.22976130711473522
1772456317544223200,1.56522314453125,13.236007193565367,1.5015448185376823,-0.26595946910139173
1772456317554242000,1.575241943359375,11.343103196442126,2.2222667382620274,0.009454495435208082
1772456317564260400,1.58526025390625,10.371205790978669,1.9325364809401333,-0.46223559951521453
1772456317574279400,1.595279541015625,8.204170379942655,1.601837668891996,-0.428297053023614
1772456317584297200,1.605297119140625,6.740027217429876,0.7318222826704383,-0.504942010884732
1772456317594315300,1.615315185546875,5.56562512589395,0.46197322225198145,-1.0028612104605883
1772456317604334000,1.625333984375,4.005146326220036,0.40340697844959794,-0.4368965755973011
1772456317614352100,1.63535205078125,2.9897154839783906,-1.0822378217753021,1.1302126750670374
1772456317624371200,1.64537109375,0.09822247382104396,-1.0191392683055251,1.212348668092489
1772456317634389200,1.65538916015625,0.08306815930902957,-0.8926235238708555,1.2855268631584942
1772456317644408300,1.665408203125,-0.0337538010418415,-0.5443871554359794,0.9631229281816631
1772456317654426000,1.675426025390625,0.9485077620476484,-0.682263155861944,0.12801876940876245
1772456317664445200,1.685445068359375,0.969683821067214,-0.10441066093668341,0.028786771485302596
1772456317674463200,1.695463134765625,-1.0785358254522084,-0.5618374719306827,-0.49048700374849136
1772456317684482000,1.70548193359375,-4.7292824383020395,-1.03626714791283,-1.4669002061359584
1772456317694500000,1.7155,-8.25134538809359,-1.237847266486287,-2.018173029432446
1772456317704518100,1.72551806640625,-9.277758812120556,-2.127168095549941,-1.7769167340308427
1772456317714537200,1.735537109375,-8.900905274879932,-1.9790796209283172,-1.5970383057862518
1772456317724555300,1.74555517578125,-8.865987106233835,-1.2886235139995812,-0.7650673304725438
1772456317734574000,1.755573974609375,-9.10781433339119,-0.6250435774281621,-0.18848668211400507
1772456317744592100,1.765592041015625,-8.6047812248677,0.07807049715220928,-0.3545838742980733
1772456317754611200,1.775611083984375,-7.606645216298103,0.5901835687100887,-0.5344641291735693
1772456317764629200,1.785629150390625,-7.694298365309834,1.1577718592524529,-0.447502323426865
1772456317774648000,1.79564794921875,-9.367680490586162,1.1883644197843968,-0.22316833859048782
1772456317784666400,1.805666259765625,-11.900905421507359,0.9632232467509806,0.46020971971079705
1772456317794685200,1.815685302734375,-12.899921135520934,0.4566483739674091,1.1848051198676228
1772456317804703200,1.825703125,-11.035382816660404,-0.10778627484962343,1.7404159723684192
1772456317814722300,1.835722412109375,-7.951591457146406,-0.4994678172573447,1.6653168922424315
1772456317824740000,1.845739990234375,-4.481021963226795,-0.35774113275259734,1.0735049916781485
1772456317834758400,1.85575830078125,-0.9803057528465986,0.12471008325219153,0.30934103978611527
1772456317844777200,1.865777099609375,2.4129601366400717,0.2840732544735074,-0.17188954838253556
1772456317854795300,1.875795166015625,5.409670594072342,0.3911708164066076,-0.6008399507483467
1772456317864814300,1.885814453125,7.737405101108551,0.5862758937470615,-0.6451410474307835
1772456317874832100,1.89583203125,9.20744082879126,0.5900232635818421,-0.5966726019358262
1772456317884851200,1.905851318359375,9.5000957413882,0.3277199423678219,-0.33169765035975723
1772456317894869000,1.915868896484375,9.409189143538475,0.14699687999263406,-0.0923906258624047
1772456317904888000,1.92588818359375,9.205643423980474,0.23943346388861536,0.0374822835130617
1772456317914906400,1.93590625,9.474926228818298,0.36754911780059335,0.18947627767324446
1772456317924925200,1.94592529296875,10.253114833605288,0.5577917036712169,0.26800518611744045
1772456317934942500,1.9559423828125,10.544531728839873,0.6134887487128377,0.3120044503090903
1772456317944961500,1.96596142578125,10.498275004577636,0.5229078756861388,0.28586006482504306
1772456317954979600,1.9759794921875,10.008653750813007,0.6207444189295173,0.3553305279469117
1772456317964997600,1.98599755859375,9.046103434887527,0.4144572917088866,0.20809255094109103
1772456317975016700,1.9960166015625,8.072473506543039,-0.06855360400527716,-0.21069840432424097
1772456317985034500,2.006034423828125,6.7733589936673635,-0.587635345532,-0.42560269937310363
1772456317995053600,2.016053466796875,5.176731606769562,-0.8937659719042479,-0.5162694605849683
1772456318005071600,2.026071533203125,3.8850533813744783,-1.101265543654561,-0.4364222360838204
1772456318015090400,2.03609033203125,3.1466789005815983,-1.2899874958291648,-0.16152566475113853
1772456318025108500,2.0461083984375,2.125815511897206,-1.507918883614242,0.4335498224526643
1772456318035127600,2.05612744140625,0.9989666141748428,-1.8965882385939359,0.570992984419316
1772456318045145600,2.0661455078125,0.7488146262645721,-1.7757069198496638,0.5008204009100794
1772456318055164700,2.07616455078125,0.6391957291603088,-1.4634708162091672,0.7138099483788013
1772456318065182500,2.086182373046875,-0.9197703278630971,-1.3803893590271472,0.40408023806866256
1772456318075200500,2.096200439453125,-3.510512212729454,-1.3514369669176638,0.1676231596423313
1772456318085219600,2.106219482421875,-7.571328403723239,-1.950236534412205,-0.46914446558821943
1772456318095237400,2.1162373046875,-11.69405481518507,-2.9158497450396417,-1.6922183431714772
1772456318105256400,2.12625634765625,-13.009995959699154,-2.877086883664131,-2.9238863365009427
1772456318115274800,2.136274658203125,-12.227219442600012,-1.5489578732281923,-3.0677772133022545
1772456318125293600,2.14629345703125,-10.681533138388394,-0.40969124635085463,-1.5742919287100434
1772456318135311600,2.1563115234375,-10.30857660858631,0.5236334134817123,0.243062979497388
1772456318145330700,2.16633056640625,-11.177329281395673,1.0730326979912816,1.6427715906962752
1772456318155348500,2.176348388671875,-11.100445948201417,0.5178412399463356,2.2271163702502847
1772456318165367600,2.186367431640625,-11.295735880589485,1.1815626308150589,2.611322900602221
1772456318175385600,2.196385498046875,-13.08223351291418,2.466113634678721,3.532608601464331
1772456318185404400,2.206404296875,-12.97878249078989,1.5623755732059479,3.427191247703135
1772456318195422700,2.216422607421875,-10.341273594051598,0.6022044075019657,3.0702129160165783
1772456318205440500,2.2264404296875,-7.133492866775393,0.599453062967211,2.7384792079627513
1772456318215459600,2.23645947265625,-3.5352222910940645,0.4041903108470142,1.9126697509534656
1772456318225477400,2.246477294921875,0.11214870784282684,-0.34632819672599435,0.3773495771292597
1772456318235496400,2.256496337890625,3.0900223628580568,0.3391917689748108,-0.8481917500134557
1772456318245514800,2.2665146484375,6.834719179037213,0.746326901102066,-1.8735747350141405
1772456318255533600,2.276533447265625,9.57816857662797,0.5275685609735549,-2.1335621805012224
1772456318265551600,2.286551513671875,9.442236257615685,0.7682916262812912,-1.7944607201583682
1772456318275570700,2.29657080078125,8.008443225181102,1.0187345599621533,-0.8044460587240755
1772456318285588500,2.30658837890625,7.5844339690119025,0.9329695627845823,-0.46303562731910497
1772456318295607600,2.316607666015625,8.160151205474138,1.4735777842037379,-0.09110197429135442
1772456318305625600,2.32662548828125,9.40890038972497,1.7915807808078825,0.07729954931233078
1772456318315643600,2.3366435546875,10.87869237177968,1.8873992622271178,0.18271533217094837
1772456318325662700,2.346662841796875,11.648420022213458,1.9422803147107361,0.45571175070442255
1772456318335680500,2.356680419921875,11.574439424723385,1.7355922054737805,0.7286906335812061
1772456318345699600,2.366699462890625,10.897573597860335,1.3403631997175514,1.0742236613415181
1772456318355717600,2.376717529296875,9.887892697447537,0.9799464180149138,1.2120575761914252
1772456318365736400,2.386736328125,8.003510444954037,0.7654676549017428,1.2567564034871757
1772456318375754500,2.39675439453125,6.217913560861349,0.25916955323293805,1.1482272013157606
1772456318385773600,2.406773681640625,5.118962723889947,0.13568506625294685,0.8641687060199678
1772456318395791600,2.41679150390625,4.392916394272446,0.2001793118648231,0.5653981600869447
1772456318405810700,2.426810791015625,3.442273958283663,-0.06894289558380842,0.4572693554099649
1772456318415828500,2.436828369140625,2.50865630685389,-0.3726994863010943,0.33418701949007806
1772456318425846500,2.446846435546875,1.8382178826898334,-0.6923373906306922,0.12703651690576226
1772456318435865600,2.456865478515625,1.1210697297990322,-0.8554268888987601,0.005976370995864272
1772456318445883400,2.46688330078125,-0.27116262723505496,-1.025988476613164,-0.10219813598636537
1772456318455902500,2.47690234375,-1.6214783350378275,-1.3132593580842018,-0.2838497113833204
1772456318465920500,2.48692041015625,-3.7660067307114597,-1.74063326838091,-1.2334469857007264
1772456318475939600,2.496939697265625,-6.248417420196533,-2.1710956462122497,-2.0414524904720484
1772456318485957600,2.50695751953125,-8.211206854450703,-2.5533544034972784,-2.4349568643927575
1772456318495976400,2.5169765625,-8.44331114449501,-2.6652757323250174,-2.8666140049666167
1772456318505994500,2.526994384765625,-7.9063786889791485,-1.6308029204830525,-2.976014290884137
1772456318516013600,2.537013671875,-8.11242323961556,-0.33084698834717274,-1.9446755392841995
1772456318526031600,2.547031494140625,-9.051160718277096,0.3859637492828071,-0.8317961302034557
1772456318536050400,2.557050537109375,-10.418064572787284,1.3191504619494079,-0.33874464626181866
1772456318546068700,2.56706884765625,-12.18708500061035,2.6463252404004334,0.44946021602898834
1772456318556086500,2.57708642578125,-15.052972444868088,2.9762428389430045,1.4556545895002782
1772456318566105600,2.587105712890625,-16.934543731594086,2.322918923448026,2.559351305824518
1772456318576123400,2.597123291015625,-15.534726033997535,1.537410789427906,3.597822831913829
1772456318586142500,2.607142578125,-11.972450900804995,1.011908074942976,4.139161705695092
1772456318596160800,2.617160888671875,-7.637764577183127,0.21858882878050206,3.529329433663189
1772456318606179600,2.6271796875,-3.007064678186178,-0.4895831137113273,2.3575661661982537
1772456318616197600,2.63719775390625,1.617210156199336,-0.6989968485198914,0.9663258889414369
1772456318626216700,2.647216796875,5.696624664679169,-0.47407414054274555,0.2005431402085349
1772456318636234500,2.657234375,8.158998528307675,-0.17880904544740914,-0.19737758884970097
1772456318646253600,2.667253662109375,9.174165166655182,-0.328372561057657,-0.4727348547630012
1772456318656271400,2.677271240234375,9.11094737071991,-0.683176763575524,-0.48071171539369967
1772456318666290400,2.68729052734375,8.765074078154564,-0.7743944001358002,-0.5103212927702814
1772456318676308700,2.697308837890625,8.617711433589458,-0.7524031522758304,-0.2708151289716363
1772456318686326500,2.707326416015625,8.579509420967101,-0.7169155131787062,-0.3518750902634114
1772456318696345600,2.717345703125,8.994175679251551,-0.7127899576812982,-0.35566863732747733
1772456318706363600,2.72736376953125,9.49830768892765,-0.512512519204244,-0.11673232757234946
1772456318716382500,2.737382568359375,9.876749372142553,-0.10188808365650474,-0.20537693530684337
1772456318726400500,2.747400390625,10.090910009217263,0.08547178638465702,-0.16869436907041818
1772456318736419600,2.757419677734375,9.925967284297943,0.2029404471412301,-0.17061423121709376
1772456318746437600,2.767437744140625,9.394012617194653,0.24029212654456494,-0.2148673605719581
1772456318756456700,2.777456787109375,8.168909096947312,-0.02604432264305651,-0.2313927442414686
1772456318766474500,2.787474609375,6.70027680632174,-0.36771256473399694,-0.2039799827894196
1772456318776493600,2.79749365234375,5.614250332853198,-0.8010196644719689,-0.059082604959839954
1772456318786511600,2.80751171875,5.153668126568198,-1.0871235479902475,0.14814035093933342
1772456318796529400,2.817529296875,4.984381234964728,-1.3380506849914788,0.2875002332475036
1772456318806548500,2.827548583984375,4.662416641253233,-1.4489859253913164,0.22733508461480958
1772456318816566500,2.83756640625,3.9166549728184936,-1.384413646107167,0.11407099940860643
1772456318826585600,2.847585693359375,2.9137153633594512,-1.1273455951981246,-0.01787467938661575
1772456318836603600,2.857603759765625,1.045154949375987,-0.7251769994370639,-0.3363091627432033
1772456318846622500,2.86762255859375,-1.1981389409542083,-0.5210916200444102,-1.21620074041076
1772456318856640500,2.877640625,-3.51738209849894,-0.5095557882905006,-1.945413644300401
1772456318866659600,2.88765966796875,-6.703374187815189,-0.9299621976621448,-2.7207988821044564
1772456318876677600,2.897677734375,-9.936578694683313,-1.7939478022001683,-3.2368957626014945
1772456318886696700,2.90769677734375,-11.584119107216596,-2.4015942546255884,-3.3787428586155173
1772456318896714500,2.917714599609375,-11.469107411158085,-1.5090392659462988,-3.0011943248480555
1772456318906733600,2.927733642578125,-11.184957292056083,-0.11108370895981788,-1.4052639803037046
1772456318916751600,2.937751708984375,-11.447136402368544,0.8283690783642232,0.44645281437393275
1772456318926769400,2.947769287109375,-11.737253320920466,1.112113247013837,1.440909294180572
1772456318936789000,2.9577890625,-11.481640729516744,1.1171252299569547,1.6321100575588643
1772456318946807000,2.96780712890625,-11.279011540281772,1.5559154372811317,1.6516873030796646
1772456318956825900,2.977825927734375,-11.676889745372533,1.942379391171038,1.7897621870785951
1772456318966844200,2.98784423828125,-11.671888576084374,1.879443042525649,2.0351095511861144
1772456318976863200,2.99786328125,-10.373154586958885,1.6597922836020589,2.1946219216197727
1772456318986881000,3.007881103515625,-8.611057236397265,1.3188567396998405,2.190795056807995
1772456318996900000,3.017900146484375,-6.442454722175002,0.7893705085366964,1.7876497249692678
1772456319006918000,3.02791796875,-3.27470789912343,0.4324741560451686,1.0859896485894918
1772456319016937000,3.03793701171875,0.06136719963252544,0.1677440460756421,0.5973677080605179
1772456319026955000,3.047955078125,3.128609575405717,-0.2824395157918334,-0.15768146521206944
1772456319036973000,3.05797314453125,5.964941254833341,-0.5358621959358454,-0.676513579359278
1772456319046992100,3.0679921875,7.985213156241178,-0.7553684318222105,-0.9419106288049369
1772456319057010200,3.07801025390625,9.113125883802772,-0.733791098525375,-1.069543832962215
1772456319067029000,3.088029052734375,9.596825346302985,-0.4435575678564608,-0.8080968363165855
1772456319077047000,3.098047119140625,9.694392571085691,-0.35456980924010273,-0.576680930395238
1772456319087066000,3.108066162109375,9.530845684438944,-0.06164674722626805,-0.28662487518507984
1772456319097084200,3.118084228515625,9.351168331724404,0.29379765289127824,0.033188367445115
1772456319107103200,3.128103271484375,9.539575518861412,0.641689737933129,-0.08769854078972712
1772456319117121000,3.13812109375,9.77423475408554,1.129325370838493,-0.058507682015560565
1772456319127140000,3.14814013671875,9.77930840408802,1.2461920471139252,-0.06451975451246834
1772456319137158100,3.158158203125,9.78052187153101,1.1075342486605046,-0.07090066032176837
1772456319147177000,3.168177001953125,9.701009943398832,1.0871014092236757,-0.10725983982272445
1772456319157195000,3.178195068359375,9.263246887165307,0.9478712177097797,-0.24876504533020777
1772456319167213000,3.188213134765625,7.957334384712577,0.7016814114287495,-0.433035041330941
1772456319177232100,3.198232177734375,6.055052318391204,0.3161839644834399,-0.3998430754229426
1772456319187250200,3.208250244140625,4.09260658300817,-0.09506927048712968,-0.0918606471715495
1772456319197269000,3.21826904296875,2.3127608097881076,-0.30095958040989934,0.11830009747887961
1772456319207287000,3.228287109375,0.45577276017665863,-0.7199692016609013,0.21040935824979096
1772456319217306000,3.23830615234375,-1.3678303217053414,-1.2732504421703517,0.13457547017638571
1772456319227324000,3.248323974609375,-2.3465847534567117,-1.7214935374945401,0.07236712984486948
1772456319237343000,3.258343017578125,-3.447794183009863,-2.13329651530236,-0.3530127890564501
1772456319247361300,3.268361328125,-5.403507979789376,-2.53634306294173,-0.8168923563864081
1772456319257380000,3.278380126953125,-8.137419149184227,-2.6797780126690864,-0.9660002371836454
1772456319267398100,3.288398193359375,-10.562563060092925,-3.0184327521577474,-1.126117514707893
1772456319277416000,3.298416015625,-10.673729771161078,-2.5980399329200385,-1.1325287699896842
1772456319287435000,3.30843505859375,-9.374314814034104,-1.1833084515690804,-1.1833089630257339
1772456319297453000,3.318453125,-8.804027785927056,0.09064166330322623,-0.3067084262602031
1772456319307472000,3.328471923828125,-9.500067684337496,0.8595645732253789,0.6738195179697126
1772456319317490200,3.338490234375,-10.338670133554935,1.4954007628247141,1.21666930777058
1772456319327509200,3.34850927734375,-11.112315249693394,2.1466785594448448,1.606038773843646
1772456319337527000,3.358527099609375,-12.523933275198935,2.393144990710169,2.0450693657949564
1772456319347546000,3.368546142578125,-13.644819465124606,2.0972459816254676,2.3663645358122882
1772456319357564000,3.37856396484375,-12.707332863306998,1.6451361278705299,2.272567038826644
1772456319367583000,3.3885830078125,-9.304621100082993,1.265568070974201,2.1314796751387415
1772456319377601000,3.39860107421875,-5.483599753636121,0.6115475515171885,1.612430959098786
1772456319387620000,3.4086201171875,-1.7192670936167238,0.13298589029684663,0.8597358381390571
1772456319397638100,3.41863818359375,2.26324069981575,-0.06429331621229648,0.09988923798948526
1772456319407656000,3.428656005859375,5.664633197134733,0.052165217653661965,-0.3289743994083255
1772456319417675000,3.438675048828125,7.958169666492939,0.24069091660380362,-0.5791717608302831
1772456319427693000,3.448693115234375,8.707485228016973,0.21533888707384466,-0.5808055725771933
1772456319437712000,3.4587119140625,8.335545766302943,-0.12699527157992124,-0.5688308014167472
1772456319447730200,3.468730224609375,7.894323509526252,-0.4784510404527187,-0.48564796621948475
1772456319457749200,3.478749267578125,7.91474962696135,-0.6685913349926471,-0.28711075900588184
1772456319467767000,3.48876708984375,8.527232705762982,-0.7052930260546505,-0.14813585742730648
1772456319477786000,3.4987861328125,9.423325805440545,-0.4277883363164961,-0.15994665193138644
1772456319487804200,3.50880419921875,9.932380658471583,-0.10649915764853357,-0.2054714999888092
1772456319497823000,3.518822998046875,10.179283873718976,0.0444167954839766,-0.23756184306414796
1772456319507841000,3.528841064453125,10.270417850583792,-0.012253478503972291,-0.2880872758878395
1772456319517859000,3.538859130859375,9.994200862568617,-0.03699365974590182,-0.2930234719146974
1772456319527878100,3.548878173828125,9.331831178569793,0.10272124654501676,-0.19016995902583003
1772456319537896200,3.558896240234375,8.01987939595282,0.11887041731327772,-0.32044808820132165
1772456319547915000,3.5689150390625,6.748121092036366,0.09628756023570895,-0.2500091453734785
1772456319557933000,3.57893310546875,5.607763308921456,0.010811170741170644,-0.031024330412177368
1772456319567952100,3.5889521484375,4.807335399797559,-0.033054420600831504,0.24060798756070434
1772456319577970000,3.598969970703125,4.1698961589157575,-0.1390155258499086,0.6216958013702184
1772456319587989000,3.608989013671875,3.4614702416628598,-0.35250483953431244,0.6648217533260583
1772456319598007000,3.619007080078125,2.5922400144696236,-0.560991961017251,0.5239232998063788
1772456319608026000,3.629026123046875,2.0066297450244424,-0.7470121068872511,0.12470811049081384
1772456319618044200,3.639044189453125,0.9847720846056938,-0.6259954713255167,-0.353845550086163
1772456319628063000,3.64906298828125,-1.6735808627188205,-0.5320864767894149,-1.2138832572486251
1772456319638081000,3.6590810546875,-6.114938924077153,-0.5427168841361999,-2.211240463465452
1772456319648099000,3.66909912109375,-10.522045171743631,-1.1322827593393623,-3.2247917755708095
1772456319658118000,3.679117919921875,-12.456881600189208,-1.7748393432348966,-3.7429464653804896
1772456319668136200,3.68913623046875,-11.80923836067915,-1.210771043512225,-3.2518349730581044
1772456319678155300,3.6991552734375,-11.176152054309844,0.12831994431242347,-1.530091844716668
1772456319688173000,3.709173095703125,-11.474819359064101,0.9294934111066162,0.44756008149608967
1772456319698192100,3.719192138671875,-11.8283522264719,1.5485365790762007,1.8499153347462414
1772456319708210000,3.7292099609375,-12.161375389814376,1.8495619912639258,2.487916008903086
1772456319718229000,3.73922900390625,-12.86195877687335,1.7791361636459826,2.4701591106772423
1772456319728247000,3.7492470703125,-13.290262515366077,1.9093935057617724,2.7443831713095306
1772456319738266000,3.75926611328125,-11.937052255165577,1.6625474275290966,2.953746637235582
1772456319748284200,3.7692841796875,-9.135727007189393,1.0048673626512288,2.6452055887207386
1772456319758302000,3.779302001953125,-6.3614925952345125,0.25346052793636914,2.002002815876156
1772456319768321000,3.789321044921875,-3.3840064782321453,-0.48865167808011173,0.9930284562975168
1772456319778339000,3.799339111328125,0.35754619470238685,-1.008343514329195,-0.0379926441879943
1772456319788358000,3.80935791015625,3.6029420746237037,-1.0277322515405714,-0.7684861259400844
1772456319798376200,3.819376220703125,6.194809164127707,-0.6965863533120602,-1.1986956249888985
1772456319808395300,3.829395263671875,8.355792435517907,-0.5952417288824916,-1.3173689853601156
1772456319818413000,3.8394130859375,9.671649408879876,-0.8099398338347673,-1.3125183304585515
1772456319828432100,3.84943212890625,10.478476079130171,-0.8079984905086457,-1.2123314246967434
1772456319838450000,3.859449951171875,10.616736548829078,-0.3597755611896515,-0.7275527155924588
1772456319848469000,3.869468994140625,10.557346786749362,0.1457611276526004,-0.3577297711083665
1772456319858487000,3.879487060546875,10.612118825900554,0.5159210855387151,-0.34718404637034983
1772456319868505000,3.889505126953125,10.308825614911317,0.8408815000653267,-0.5050613629480823
1772456319878524200,3.899524169921875,9.654002108508347,0.8844748503372073,-0.5203983040180057
1772456319888542200,3.909542236328125,8.852365408116578,0.547802151511237,-0.5633534294515847
1772456319898561000,3.91956103515625,7.987551828321814,0.39867527375258505,-0.30810755246840416
1772456319908579000,3.9295791015625,7.057684469336271,0.2083532659702003,-0.08737749214181675
1772456319918598100,3.93959814453125,6.128244980373978,-0.09009097061790525,-0.000010612725559622048
1772456319928616000,3.949615966796875,5.765059903001785,-0.328841128417477,0.233555146439746
1772456319938634800,3.959634765625,5.6786132071703666,-0.38278519231192765,0.483470549115166
1772456319948652800,3.96965283203125,5.322776738995313,-0.5149530442241579,0.5665184693537653
1772456319958672000,3.979671875,5.049256150457262,-0.7302091483853757,0.7296250648871063
1772456319968689700,3.989689697265625,4.792503741368651,-0.8957894405558705,0.9430082878485322
1772456319978708700,3.999708740234375,4.102946775236726,-1.1968782733686267,1.1305358426067977
1772456319988726500,4.0097265625,2.417006781682372,-1.5759632229231297,1.0484130013238637
1772456319998744800,4.019744873046875,-0.3665466627597809,-2.02316791511029,0.5221110627526417
1772456320008764000,4.029763916015625,-3.715485334742069,-2.207092988397181,-0.20603702491708098
1772456320018781700,4.03978173828125,-7.796794863188266,-2.1945383349895478,-1.1171584746394305
1772456320028800800,4.04980078125,-12.06162789838314,-2.6273995906561614,-2.341076949820667
1772456320038818600,4.059818603515625,-14.113044879639148,-2.7251439255714414,-3.171925277779996
1772456320048837600,4.069837646484375,-14.008641086834668,-1.3009019808143376,-3.112154407428205
1772456320058855700,4.079855712890625,-14.10358497737646,0.36299437710568305,-1.7847075340375302
1772456320068874500,4.08987451171875,-14.754112247890234,1.2690119278177618,-0.3038968394381925
1772456320078892800,4.099892822265625,-14.694265389692783,1.6091959227003156,0.5894206580461934
1772456320088912000,4.109911865234375,-13.593706533002853,1.8955700014621018,0.9480131103985011
1772456320098929700,4.1199296875,-12.556121726620196,2.2491892319791016,1.2616361383527517
1772456320108947700,4.12994775390625,-12.386519193196296,2.5368264625445005,1.5628395374558866
1772456320118966500,4.139966552734375,-11.847388935375212,2.2727616846159098,1.6391386410214006
1772456320128984600,4.149984619140625,-9.562571194523573,1.5608818275168537,1.5876435777142643
1772456320139003600,4.160003662109375,-5.729997941970825,0.8551661921359598,1.2829416689708828
1772456320149021700,4.170021728515625,-1.7074971608459948,0.4937804192706942,0.8260987222794443
1772456320159040800,4.180040771484375,2.126464331194758,0.20678733182772993,0.28768236661506813
1772456320169058800,4.190058837890625,5.7073874662339685,-0.20026954743154346,-0.33426392065119
1772456320179077600,4.20007763671875,8.712154973393679,-0.7179295125268399,-0.6573262099388987
1772456320189095700,4.210095703125,10.547061539578436,-1.2942903075896204,-0.9356102134864777
1772456320199114800,4.22011474609375,10.814912850308417,-1.4509294606745242,-0.812501939407736
1772456320209132500,4.230132568359375,10.208773003053665,-1.344575995106995,-0.6653453388087451
1772456320219150800,4.24015087890625,9.790209737330674,-1.0445246155831962,-0.2546985818313435
1772456320229169700,4.250169677734375,9.255009804695844,-0.6152849844798446,0.08903448383491486
1772456320239187700,4.260187744140625,8.511192256066202,-0.4014695806462317,-0.04494600698985159
1772456320249206800,4.270206787109375,8.227519691348075,-0.22004494587294757,-0.08738587637767195
1772456320259224600,4.280224609375,8.311115089401602,0.07149279926232993,0.016172953502647577
1772456320269243600,4.29024365234375,8.164056980741023,0.40574353163838384,0.10293470663260668
1772456320279261700,4.30026171875,8.137709072041512,0.5791923652268945,0.2092944192778319
1772456320289280800,4.31028076171875,7.946027977800369,0.6234112269859761,0.374543141406402
1772456320299298800,4.320298828125,7.703010664075612,0.4709771974407136,0.5599472742699086
1772456320309317600,4.330317626953125,7.235323594221472,0.2903927398186177,0.8130471522003412
1772456320319335700,4.340335693359375,6.4416533426642415,-0.016903057875484226,1.0313488346025348
1772456320329354800,4.350354736328125,5.415264468556642,-0.284850814717263,1.0885802496045827
1772456320339372500,4.36037255859375,4.584218133807182,-0.581192599133402,1.0014774279519916
1772456320349390800,4.370390869140625,3.7167116616666314,-0.9664387747313826,0.7870167119521647
1772456320359410000,4.380409912109375,2.0851538311630486,-1.1913757304295898,0.5142535176526755
1772456320369427700,4.390427734375,-0.17580606423914433,-1.1140579513408242,0.1811891820495948
1772456320379446800,4.40044677734375,-3.193578014400601,-0.9312053295910357,-0.1588051354797557
1772456320389464600,4.410464599609375,-6.7309794030994174,-1.0690946278899907,-0.7012677891265601
1772456320399483600,4.420483642578125,-9.688673024395108,-1.5555788988031447,-1.1176711003366857
1772456320409501700,4.430501708984375,-10.534608885240555,-1.7818628121308981,-1.6124315436206758
1772456320419520500,4.4405205078125,-9.34940716727078,-0.9316993967182934,-1.8130093532837925
1772456320429538800,4.450538818359375,-8.098094270011782,0.46027124063968655,-0.8809479183200746
1772456320439558000,4.460557861328125,-8.533253281226754,1.3182134733602404,-0.042004400580003855
1772456320449575700,4.47057568359375,-9.68053881777823,1.7290911530166864,0.30775735079124567
1772456320459593700,4.48059375,-10.884033732807636,2.0068349122077227,0.5251239808330312
1772456320469612500,4.490612548828125,-12.831309956109523,2.201426194807142,0.45053106013089417
1772456320479630600,4.500630615234375,-14.908240148806572,2.1246927914775906,0.21837540522553026
1772456320489649700,4.510649658203125,-14.866629204523562,1.7376671120516956,-0.02839713284689933
1772456320499667700,4.520667724609375,-11.642312937510013,1.1815342815034091,0.007631188998185098
1772456320509686800,4.530686767578125,-8.024752554947137,0.6046345572583377,0.11503821873925625
1772456320519704600,4.54070458984375,-4.5044005007267,0.06019976328834891,0.04954824008829892
1772456320529723600,4.5507236328125,-0.7618763524115085,-0.2224802832610905,-0.07887538379430771
1772456320539741700,4.56074169921875,2.8653526067286728,-0.3194699273515493,-0.11439171926295384
1772456320549760500,4.570760498046875,6.2111605794698,-0.39654491066038605,0.045162444485817105
1772456320559778800,4.58077880859375,8.342616727602481,-0.5773260598983615,0.3272028596911579
1772456320569797600,4.590797607421875,9.177579359012842,-0.6031940761264413,0.527625113466382
1772456320579815700,4.600815673828125,9.581865677580236,-0.4854532473649829,0.8391231851559132
1772456320589833700,4.610833740234375,9.850411984837054,-0.3814940565228462,0.9429828611463308
1772456320599852800,4.620852783203125,10.279193862235546,-0.18647395405210554,0.9923822673484682
1772456320609870600,4.63087060546875,10.885192255192994,0.08402604455575347,0.8266086445629596
1772456320619889700,4.6408896484375,11.606284177273512,0.5454641370177269,0.26675686655677855
1772456320629907700,4.65090771484375,11.422294222056864,0.6703452659878879,-0.11026618203185498
1772456320639926800,4.6609267578125,10.56977255308032,0.5310987809263169,-0.3751989019013941
1772456320649944800,4.67094482421875,8.989082155504823,0.37258338564075527,-0.465444661222212
1772456320659963600,4.680963623046875,6.9148454396754495,0.18127477797381578,-0.5642603151634336
1772456320669981700,4.690981689453125,5.445238751059771,-0.2741690425094217,-0.6132015292692929
1772456320679999500,4.70099951171875,4.66602021870315,-0.9339561626691371,-0.8580065301284193
1772456320690018600,4.7110185546875,3.6225066067934035,-1.2069549923554062,-0.7743628359537571
1772456320700036900,4.721036865234375,2.6938106296747923,-0.9898222076021135,-0.7805938392978161
1772456320710055700,4.7310556640625,2.5319325530230996,-0.864366347483918,-0.7364616329088807
1772456320720073700,4.74107373046875,2.5969196967184542,-1.0497835590247064,-0.6457588870681822
1772456320730092800,4.7510927734375,2.6801398317188023,-1.2664903003856538,-0.5213852692287415
1772456320740110600,4.761110595703125,2.6691169179230925,-1.0858436642475426,-0.2510419224873185
1772456320750129700,4.771129638671875,1.8072785545468328,-0.7987051769845187,-0.22722853723410516
1772456320760147700,4.781147705078125,-0.5118272403538227,-0.48335737106427545,-0.14580637330012394
1772456320770166500,4.79116650390625,-5.1884273052603005,-0.6890377645634115,-0.07585674835918471
1772456320780184800,4.801184814453125,-10.584716439712047,-1.7802287811882793,-0.4247804962700233
1772456320790204000,4.811203857421875,-12.910251975399255,-2.2420986891962587,-0.7451774388059973
1772456320800221700,4.8212216796875,-12.746813809823989,-1.044818118637055,-0.40228403883427377
1772456320810239700,4.83123974609375,-12.947322353643179,0.28417203867286445,0.6768629773188382
1772456320820258600,4.841258544921875,-14.019502672588825,0.8934985531397164,0.9944682798422873
1772456320830276600,4.851276611328125,-14.635595758581161,1.3657283809900282,0.9199485339742154
1772456320840295700,4.861295654296875,-14.384837036949396,1.5640508129417896,0.7930617642700671
1772456320850313700,4.871313720703125,-14.470498719882965,1.4528577983886002,0.8044106951497495
1772456320860332800,4.881332763671875,-14.867634582173823,1.1187620373785494,0.8478707744307815
1772456320870350600,4.8913505859375,-13.637335246849059,0.6718951988436281,1.030069389251247
1772456320880369700,4.90136962890625,-10.074012650430202,0.32911022768244147,1.2390455363601445
1772456320890387700,4.9113876953125,-5.221491370472312,-0.17944222878441213,1.006854664010927
1772456320900406500,4.921406494140625,-0.1605839451879263,-0.47687020100206134,0.6245818782005459
1772456320910424800,4.9314248046875,4.4346921737283465,-0.6197324654079973,0.14755601171273738
1772456320920442600,4.941442626953125,7.882274759814143,-0.6310510011494159,-0.39716070447117086
1772456320930461700,4.951461669921875,10.203032998096942,-0.3971525211647153,-0.6583470043540001
1772456320940479700,4.961479736328125,10.855513740766048,-0.4512545520998537,-0.8650690158605575
1772456320950498800,4.971498779296875,10.5579114348948,-0.6758028007414192,-0.7619225296407938
1772456320960516600,4.9815166015625,10.251031597590446,-0.6476284072671086,-0.26431208548685536
1772456320970535700,4.99153564453125,10.02797103022337,-0.4405983527246862,0.13407953075245022
1772456320980553700,5.0015537109375,9.78227134554684,-0.019391805951297282,0.26539357884693887
1772456320990572800,5.01157275390625,9.854520004677772,0.45259822179377074,0.14547540604639797
1772456321000590800,5.0215908203125,10.310568659186362,0.7591318029437214,-0.13433978912383318
1772456321010609700,5.031609619140625,10.277647217315435,0.9113700176559388,-0.36723712924197316
1772456321020627700,5.041627685546875,9.443929033008217,0.9985809027928858,-0.5677862973324954
1772456321030645800,5.051645751953125,8.023120569831132,0.9504118421033024,-0.6017230537258088
1772456321040664600,5.06166455078125,6.443722550153732,0.6864188873019069,-0.3890266439847648
1772456321050683000,5.071682861328125,5.458106415939331,0.24519341565482317,-0.19735639993119983
1772456321060702000,5.081701904296875,4.904833650997281,-0.0565481819782406,0.13833897829521447
1772456321070719700,5.0917197265625,4.833428456953167,-0.22552155065312982,0.4161885724809021
1772456321080738800,5.10173876953125,5.0252264555722475,-0.26120018227770925,0.6044433820677921
1772456321090756600,5.111756591796875,4.553849299028515,-0.5740729763865471,0.33968474012352523
1772456321100775700,5.121775634765625,3.6217905674785373,-1.0963780638739467,0.009624152913689612
1772456321110793700,5.131793701171875,2.430321021285653,-1.2875609993346036,-0.18004983928874133
1772456321120812500,5.1418125,1.1842051081478595,-1.3454527779415248,-0.30660934979990123
1772456321130830800,5.151830810546875,-0.641136926355958,-1.2913884486682712,-0.6786587746944278
1772456321140850000,5.161849853515625,-3.8062358652472494,-1.2843958133019506,-0.9961232074424624
1772456321150867700,5.17186767578125,-8.361554067784548,-1.812121902924776,-1.4451809801504014
1772456321160885800,5.1818857421875,-12.25057459922433,-2.802829807320237,-2.1908479560390113
1772456321170904600,5.191904541015625,-12.731166158837079,-2.4903654478818176,-2.4569798956304787
1772456321180922600,5.201922607421875,-11.589485018163918,-0.9012197950415313,-1.402860572423786
1772456321190941700,5.211941650390625,-11.862971119910478,0.16900018361657856,0.04937055456698872
1772456321200959700,5.221959716796875,-13.017711648643017,0.5301834196470677,0.7693791292570531
1772456321210978800,5.231978759765625,-13.426668881630897,0.8020736305043101,1.3473868147440253
1772456321220996600,5.24199658203125,-13.439729438734053,1.2444829051084816,1.6414824276685713
1772456321231015700,5.252015625,-13.684370554268359,1.5133727651059627,1.5860986863598228
1772456321241033700,5.26203369140625,-13.763125526553392,1.5581106092378496,1.230542204169929
1772456321251052500,5.272052490234375,-11.917300091469286,1.2664651659443973,0.9111044255223125
1772456321261070800,5.28207080078125,-7.690824551719427,0.8291922313153743,0.5928566603768617
1772456321271089000,5.2920888671875,-2.880425088176131,0.44606107510998844,0.36892486313320694
1772456321281107700,5.302107666015625,1.4322878885686396,0.1391714470639825,0.17362435455219818
1772456321291125800,5.312125732421875,5.017501998800039,-0.0737095254637301,-0.06860989620320034
1772456321301144800,5.322144775390625,7.705392590776086,-0.19320479667708276,-0.41740719102304424
1772456321311162600,5.33216259765625,9.648670684352517,-0.27181875305622816,-0.5741182768329978
1772456321321181700,5.342181640625,10.826271279668807,-0.35709669736921784,-0.5382136179002002
1772456321331199700,5.35219970703125,11.157842490637302,-0.4761886484786868,-0.28086808349033815
1772456321341218800,5.36221875,10.98596499801874,-0.3121406804420054,0.06326952612251042
1772456321351236900,5.37223681640625,10.383912127816677,-0.12223339094035326,0.14197530723726376
1772456321361255700,5.382255615234375,9.989037196195126,0.19827143241688608,0.09266049231234938
1772456321371273700,5.392273681640625,10.14100821133852,0.6181497262611985,0.014171148693561553
1772456321381292800,5.402292724609375,9.76037632460296,0.714565369855985,-0.0013365093007683753
1772456321391310600,5.412310546875,8.92504135274887,0.696049762217328,0.06552439237721264
1772456321401329000,5.422328857421875,7.958452575087547,0.7312295774742961,0.16310538995694368
1772456321411347700,5.43234765625,7.201349428427219,0.7396093563500792,0.23990071607418356
1772456321421365800,5.44236572265625,6.598900836905837,0.5526516373690218,0.3708988666199147
1772456321431384800,5.452384765625,6.098982645532488,0.00930690365806222,0.477283202249743
1772456321441402600,5.462402587890625,5.677163592883944,-0.5977005202114581,0.6778396403312683
1772456321451421700,5.472421630859375,4.875018942970037,-1.0387223590452224,0.7445869255669415
1772456321461439700,5.482439697265625,3.7634967937171457,-1.1736711469128727,0.7716704550646245
1772456321471458600,5.49245849609375,2.8318098180890083,-1.2546373655065894,0.5073869198188186
1772456321481476900,5.502476806640625,2.2944529996812344,-1.4174819491028785,0.1658592917749658
1772456321491496000,5.512495849609375,1.3275848205566405,-1.5997541406162081,-0.3529099497364834
1772456321501513700,5.522513671875,-0.514637037077546,-1.582256039457023,-1.038310928700119
1772456321511531800,5.53253173828125,-4.266542177200317,-1.234115386481583,-1.5222767870515583
1772456321521550600,5.542550537109375,-9.877495222073794,-1.6504003320090472,-2.2400144302681086
1772456321531568600,5.552568603515625,-13.91104112882614,-2.6881924975320697,-2.7100542007282376
1772456321541587700,5.562587646484375,-14.226549678266048,-2.695788359488547,-2.3125509664297104
1772456321551605800,5.572605712890625,-12.989552891129254,-1.5479691544517873,-0.9463209195278585
1772456321561624800,5.582624755859375,-12.97212361742258,-0.5429661827221512,0.4476562353469431
1772456321571642600,5.592642578125,-13.619875578004121,-0.025709026274085042,0.8214035502005368
1772456321581661700,5.60266162109375,-13.071335686802863,0.7917344611890613,1.0422557938683776
1772456321591679700,5.6126796875,-11.773759051018953,1.378558344207704,1.170197187191993
1772456321601698600,5.622698486328125,-11.491595137298107,1.5644617318302392,1.3040605909757315
1772456321611716900,5.632716796875,-12.056154435408114,1.5278729996234177,1.4583213244915008
1772456321621734700,5.642734619140625,-11.615733558142184,1.113461008360982,1.4627122529268264
1772456321631753700,5.652753662109375,-8.7565762989223,0.5536228935539722,1.3739705780260265
1772456321641771800,5.662771728515625,-4.727611874741315,0.05949599893316626,1.0905866940561681
1772456321651790600,5.67279052734375,-0.9705494979858398,-0.31827056149914856,0.7671727052539586
1772456321661808600,5.68280859375,2.472566756340861,-0.46061464724987744,0.28765065630255265
1772456321671827700,5.69282763671875,5.753471756538748,-0.44423239837810397,-0.23344470833521336
1772456321681845800,5.702845703125,7.910318366515636,-0.08010551011115312,-0.4559643737586215
1772456321691864800,5.71286474609375,8.783046372696758,0.3208259450703859,-0.5444728974906727
1772456321701883000,5.7228828125,8.866189350807666,0.6157428112499416,-0.5571493871796875
1772456321711901700,5.732901611328125,8.734825654885173,0.7039329897478223,-0.4688473458051681
1772456321721919700,5.742919677734375,9.080719990238547,0.7415148246452212,-0.4859495795145631
1772456321731938800,5.752938720703125,9.609936172288656,0.8080655643954873,-0.2843704473217949
1772456321741956600,5.76295654296875,10.271952805066109,0.8488035252362489,-0.1684118258019909
1772456321751975000,5.772974853515625,10.825972004461288,0.9224816326484083,0.05861534364111721
1772456321761993700,5.78299365234375,10.983963595068454,0.7601898606292903,0.27461492311339825
1772456321772011800,5.79301171875,10.789539924120902,0.4408694978162646,0.49604416295159603
1772456321782030800,5.80303076171875,10.180690233385562,0.38748175263032314,0.7033728716470301
1772456321792048600,5.813048583984375,9.160453452166914,0.35123481959849595,0.9179301068238913
1772456321802067700,5.823067626953125,7.243166708937287,0.22129063508510588,0.8983822335280478
1772456321812085500,5.83308544921875,4.8932104332208635,0.06410904568657279,0.7410529062218963
1772456321822104600,5.8431044921875,3.258018045607209,-0.1632642703130841,0.6606966362200677
1772456321832123000,5.853122802734375,2.8727853870779274,-0.3542787173390388,0.5738640098109841
1772456321842141700,5.8631416015625,3.1356425427824255,-0.4748103458628058,0.568620337003842
1772456321852159700,5.87315966796875,3.0848902606666084,-0.7126908812209963,0.41355106358416377
1772456321862177800,5.883177734375,2.6821622774571177,-1.1535120098508893,0.11555208654552697
1772456321872196600,5.893196533203125,2.0452146194845437,-1.3271727326244116,-0.1778176963225007
1772456321882215000,5.90321484375,0.44953532709181304,-1.2270130071304737,-0.8769360523302108
1772456321892233700,5.913233642578125,-2.6132366252690553,-1.1466929774858057,-1.5842580269291997
1772456321902251800,5.923251708984375,-7.124765370440483,-1.4457298462048171,-2.298983044326305
1772456321912270800,5.933270751953125,-11.44142211637497,-2.10056986535117,-3.011771832963824
1772456321922288600,5.94328857421875,-13.021763554382323,-2.523839847460389,-3.1286797180324792
1772456321932308000,5.953307861328125,-11.981104162859916,-1.6896185359366238,-2.4139057469271124
1772456321942326000,5.963325927734375,-10.890026251220702,-0.5606827489376067,-0.6327673035480081
1772456321952344800,5.9733447265625,-10.630960304492712,0.00698196784183383,0.6589828180395066
1772456321962363000,5.98336279296875,-10.34250225906372,0.13568258203491568,1.1262792811408637
1772456321972381000,5.993380859375,-9.68568261040747,0.5471345544479786,1.5304701765097677
1772456321982400000,6.00339990234375,-10.569408980464935,0.9989360729061066,1.958072488734871
1772456321992418000,6.01341796875,-13.127227669894694,0.9362284184500574,2.176292191942036
1772456322002436900,6.023436767578125,-14.143451708340644,0.7161090191014111,1.9576900652885436
1772456322012455000,6.033454833984375,-11.821701536411046,0.45345834575444455,1.4005156167328356
1772456322022474000,6.043473876953125,-6.759965259087085,0.18014628540053962,0.8640442759227007
1772456322032492000,6.053491943359375,-1.4703046077519655,-0.16062851498201489,0.2624284819636494
1772456322042511000,6.063510986328125,2.827542808294296,-0.21890578577518463,-0.2260646628201939
1772456322052529200,6.073529052734375,6.139782273432612,-0.07073971587270497,-0.5743502589579671
1772456322062548000,6.0835478515625,8.315234215158224,0.0691473321147263,-0.5990447013620287
1772456322072566000,6.09356591796875,9.504346969091891,0.13247107264250516,-0.4175250817816704
1772456322082585000,6.103585205078125,9.730691964957117,0.22655220887511968,-0.09062248367872089
1772456322092603000,6.113602783203125,9.39903190666139,0.2612846456907689,0.021631109310686587
1772456322102621200,6.12362109375,9.254418268543482,0.2625618260197341,0.21143424431812016
1772456322112640000,6.133639892578125,9.80939257670641,0.3296627469986677,0.45850496161952614
1772456322122658000,6.143657958984375,10.190717121881246,0.4057105061516165,0.52260607972797
1772456322132677000,6.153677001953125,10.14645244821906,0.49095776306539773,0.6457040881410241
1772456322142695000,6.16369482421875,9.998590621960162,0.43259164494499563,0.746377169984579
1772456322152714000,6.1737138671875,9.315932767692209,0.40568960949406024,0.6676234398085623
1772456322162731800,6.183731689453125,8.214740289273857,0.4335138743564486,0.7792987579859793
1772456322172750800,6.193750732421875,6.99582451775074,0.28543080656230446,0.6657290774293243
1772456322182769200,6.20376904296875,6.027390989005565,0.1352250475257635,0.5535229037782177
1772456322192788000,6.2137880859375,5.506097416648268,-0.10703165709003805,0.4786685921935364
1772456322202806000,6.223805908203125,5.371996404716372,-0.10921265439093113,0.6292122414149344
1772456322212823800,6.23382373046875,5.083022226458787,-0.04977539990767836,0.6417030358061194
1772456322222843000,6.2438427734375,4.873069562467933,-0.0860110808931291,0.552057690063864
1772456322232861000,6.25386083984375,4.517332463014125,-0.3522837441295385,0.3372317940134555
1772456322242879700,6.263879638671875,4.07684611929655,-0.5519945616997778,0.007433803262561559
1772456322252898000,6.27389794921875,3.301387231734395,-0.7964977300681173,-0.2104345292236656
1772456322262916000,6.283916015625,1.5021891077905893,-0.8171518110401927,-0.6040189826432615
1772456322272935000,6.293934814453125,-2.280070838585496,-0.7083405770570039,-1.5393495024055242
1772456322282953000,6.303952880859375,-8.471521339935064,-0.9773549402169883,-2.863670352730155
1772456322292972000,6.313971923828125,-14.406103112339972,-2.268072650016844,-4.012265802836418
1772456322302990000,6.323989990234375,-15.821996330946684,-3.326191418123245,-4.809238310809433
1772456322313009000,6.3340087890625,-14.514853409916162,-2.3617621565833686,-3.707214350003004
1772456322323027000,6.34402685546875,-14.567173964262008,-0.9693794312931596,-1.3516110083103179
1772456322333046000,6.3540458984375,-15.635829616212844,-0.27739187701344487,0.11531407653857022
1772456322343064000,6.36406396484375,-15.560038169908523,0.2716213307879865,1.0723577213391662
1772456322353083000,6.374082763671875,-13.567197296261787,0.5248465886637568,1.518241832447052
1772456322363101000,6.384100830078125,-12.077342184865474,0.621691198260337,1.8591798605673013
1772456322373120000,6.3941201171875,-12.574789017689227,0.7779543576397001,2.2689421263277527
1772456322383138000,6.404137939453125,-12.498457473158835,0.8215043071612715,2.395577624684572
1772456322393156000,6.414156005859375,-9.277279504171013,0.3659671093061566,2.061607828141749
1772456322403175000,6.4241748046875,-4.7264948534101245,-0.2424656711913645,1.3172777999453247
1772456322413193000,6.43419287109375,0.4198316782236099,-0.3534270689457655,0.7607927218932657
1772456322423212000,6.4442119140625,5.472286916983127,-0.2616121240794658,-0.07038841821700334
1772456322433229800,6.454229736328125,9.263822641226648,-0.061340165495127434,-0.6041001215880737
1772456322443249000,6.464248779296875,11.002190156632661,0.17467092272937296,-0.6743701375897974
1772456322453267200,6.47426708984375,11.095074192035197,0.26114275300204753,-0.6500140602946282
1772456322463286000,6.4842861328125,10.65334398573637,0.398508904209733,-0.3938251668402925
1772456322473304000,6.494303955078125,10.462184285020827,0.5608759334221481,-0.15497841679845004
1772456322483323100,6.5043232421875,10.405168850857018,0.7636927541837095,0.171235029996559
1772456322493341000,6.5143408203125,10.427393542146682,0.7924731507271527,0.5382148965418339
1772456322503359000,6.52435888671875,10.391797328108549,0.89204630850479,0.6848493729628622
1772456322513377800,6.534377685546875,10.369836840713024,1.141213084769994,0.7278184538565575
1772456322523396000,6.54439599609375,9.934751479256153,1.2853509220696986,0.6483220886196941
1772456322533415200,6.554415283203125,9.140145992675423,1.4390318098708987,0.483747101034224
1772456322543433000,6.564432861328125,8.575757374957202,1.6681278580099344,0.38123723221756517
1772456322553452000,6.5744521484375,7.91411600523293,1.6095893059320747,0.27047340286187826
1772456322563469800,6.5844697265625,6.769902715733647,1.2945828607954084,0.21351013727672397
1772456322573489000,6.594489013671875,5.408787381497025,0.8820699811525642,0.21090492321439086
1772456322583508000,6.604508056640625,4.538005248686671,0.4675628589525819,0.39653738494105634
1772456322593525800,6.61452587890625,4.124969221952557,-0.06084595223739743,0.4030854183450341
1772456322603544000,6.6245439453125,3.6795267171323296,-0.5897163895897567,0.1882755235813558
1772456322613563100,6.634563232421875,3.203354727527499,-0.9679122813500464,0.14768230497352777
1772456322623581000,6.644580810546875,2.981420533841848,-1.4418417527250944,-0.012872560250386595
1772456322633600000,6.65460009765625,2.4267367330580947,-1.7925507948838173,-0.44152102052755654
1772456322643617800,6.66461767578125,0.02897124294042587,-1.9275614690065384,-1.1782991720397025
1772456322653636900,6.674636962890625,-4.937829327148199,-1.8682137925028799,-2.1065572691977024
1772456322663655200,6.6846552734375,-11.337608690679073,-2.3305765985943374,-3.016837299659848
1772456322673674000,6.694674072265625,-15.922460446214675,-3.542379177111387,-3.770133455252647
1772456322683692000,6.704692138671875,-15.705013627076148,-3.3804137144371866,-3.904740078619122
1772456322693711000,6.714711181640625,-13.671162697649,-1.269765376533568,-2.1951129200071096
1772456322703729000,6.72472900390625,-12.72661507140398,0.0964336907081306,-0.5316028945235535
1772456322713747000,6.734746826171875,-12.196678173863887,0.48844388054832816,-0.13515817456832155
1772456322723766000,6.74476611328125,-11.17474218751192,1.0531839420527218,0.4350717713229358
1772456322733784000,6.7547841796875,-10.247865827035904,1.2835023715935647,1.2018344344712792
1772456322743803100,6.76480322265625,-11.016818401443958,1.3928820531144737,2.027998111745715
1772456322753821000,6.774821044921875,-12.615071928238867,1.5390003967069088,2.636510241089761
1772456322763840000,6.784840087890625,-12.834866187286377,1.354275112953037,2.593312904398143
1772456322773858000,6.794858154296875,-9.25216435213685,0.7488143340036273,2.1446255724377927
1772456322783876900,6.804876953125,-3.7937627526432274,0.0597622486539185,1.5916117506928742
1772456322793895000,6.81489501953125,1.160093580198288,-0.40027182222902774,1.334982529592514
1772456322803914000,6.8249140625,5.04411294234991,-0.6994253030650317,0.9540068709205836
1772456322813932000,6.83493212890625,7.932678666883707,-0.7727696484781801,0.6284717983111738
1772456322823951000,6.844951171875,9.687644850391148,-0.5499228699922561,0.5030777879154309
1772456322833969000,6.854968994140625,10.10458548334837,-0.22752806816995141,0.4768088992688805
1772456322843987000,6.864987060546875,10.116645338976383,0.17502865012586116,0.4532755365334451
1772456322854006000,6.875006103515625,9.840194542205333,0.6113185650669037,0.49780470635071394
1772456322864023800,6.88502392578125,9.512557748076318,0.8368214110195636,0.6699008101560175
1772456322874043000,6.89504296875,9.272863441294431,1.0558065456412733,0.9103449854571372
1772456322884061200,6.905061279296875,9.469838550290465,1.2976372799299656,1.148342790519446
1772456322894080000,6.915080078125,9.87363854664564,1.4815715594366192,1.0861084526635705
1772456322904098000,6.92509814453125,9.377328024375439,1.6532586440496146,0.8553552119020372
1772456322914117000,6.9351171875,8.510757371780276,1.7716057681411503,0.6176775056395679
1772456322924135000,6.945135009765625,8.193648401406406,1.7635786751605569,0.5776948201455175
1772456322934154000,6.955154052734375,8.042305162772536,1.6994097159802912,0.601656564360857
1772456322944172000,6.965172119140625,7.489926131799817,1.507388283868879,0.6248205823272466
1772456322954190800,6.97519091796875,6.429164447969198,1.3208273091204463,0.813352053431049
1772456322964209000,6.985208984375,5.267691980633139,1.0759889174483717,0.9900275939811021
1772456322974227000,6.99522705078125,4.704173716008663,0.8527952252209186,1.0190338351696728
1772456322984246000,7.00524609375,4.590030034956336,0.40623423776477574,0.9813847071897238
1772456322994263800,7.015263916015625,4.161001489320397,-0.18529124707356096,0.7586470881666988
1772456323004283000,7.025282958984375,2.7608880236476656,-0.6613457477785647,0.5897394051391631
1772456323014301000,7.035301025390625,0.5812503206700086,-1.065833872528374,-0.02402925649359822
1772456323024320000,7.045320068359375,-2.0183271970808505,-1.4941484246760606,-0.7613703756507486
1772456323034338000,7.055338134765625,-6.124424545302987,-1.675788017374277,-1.6743252513453364
1772456323044356900,7.06535693359375,-11.08904426422119,-2.2261868343152105,-3.0343811396569014
1772456323054375000,7.075375,-12.439972550964354,-2.756863590437174,-3.703797235035896
1772456323064394000,7.08539404296875,-10.650753384721279,-1.9968344733275472,-3.2903900369018313
1772456323074411800,7.095411865234375,-10.503311245179177,-0.6897831761032343,-1.8474997980371117
1772456323084430800,7.105430908203125,-12.22031857717037,0.22477044002488253,-0.7046176110111176
1772456323094449200,7.11544921875,-14.087517639672756,0.8762272464737295,0.031560711444355544
1772456323104467000,7.125467041015625,-15.683230834335088,1.3945153534047305,0.714965986546129
1772456323114486000,7.135486083984375,-16.992474527037142,1.943483553020656,1.2234227275535463
1772456323124503800,7.14550390625,-16.93505343468189,2.072312031377107,1.63337218644917
1772456323134523000,7.15552294921875,-14.131515771353245,1.504423734974861,1.8440464427128433
1772456323144541000,7.165541015625,-9.560714753001928,0.482245756560564,1.4646242240279912
1772456323154559700,7.175559814453125,-4.330149264714121,-0.49894715438410636,0.895304433517903
1772456323164578000,7.185578125,0.13750643646121025,-1.3839394527241586,0.4626958009054884
1772456323174597000,7.19559716796875,3.2625860841751098,-2.1449955747939646,0.15448851438965647
1772456323184615000,7.205614990234375,5.76512478493154,-2.330015311449766,-0.20440029056072234
1772456323194634000,7.215634033203125,7.614103131088614,-2.0304970889545975,-0.3572102407462895
1772456323204651800,7.22565185546875,8.29808142030537,-1.7308895807407796,-0.485629334584251
1772456323214670800,7.2356708984375,8.227369469222426,-1.3694248974204062,-0.4053712642598897
1772456323224689000,7.24568896484375,7.771827010670304,-1.0709413517352193,-0.09516045590192079
1772456323234707000,7.25570703125,7.905977706962823,-0.8981204407867044,0.18063976800590753
1772456323244726000,7.26572607421875,8.796120373803376,-0.5588941119551658,0.4347410780638456
1772456323254744000,7.275744140625,9.978066889369487,-0.17157690223678945,0.7294917938962578
1772456323264763000,7.285762939453125,11.063250482273101,0.2809261155541986,0.9361802684593945
1772456323274781000,7.295781005859375,10.765811842530965,0.4830637218799442,1.0392432411141692
1772456323284800000,7.305800048828125,9.838202491605282,0.36950229769498105,1.0340184191379695
1772456323294818000,7.315818115234375,9.448881102457642,0.5224015335991978,1.1898173950716853
1772456323304836900,7.3258369140625,8.885508383783698,0.5994611001431942,1.1952738338466733
1772456323314855000,7.33585498046875,7.552209861755371,0.33002230102606117,1.0283581283539533
1772456323324874000,7.3458740234375,5.70203207668066,-0.07169738192372023,0.878977421964705
1772456323334892000,7.35589208984375,4.367729346045851,-0.2945188798379153,0.6199983498025685
1772456323344910800,7.365910888671875,3.7449844009488817,-0.3218688782520592,0.248326014592126
1772456323354929000,7.375928955078125,3.532995262694359,-0.43044966448023914,-0.2032604728758335
1772456323364947000,7.385947021484375,3.228316150304675,-0.6393989966474473,-0.5765019570991397
1772456323374966000,7.395966064453125,2.2418840235322715,-0.844726850381866,-0.9022028877947479
1772456323384984000,7.405984130859375,0.41923721946179865,-0.9527047022808343,-1.3289017483741044
1772456323395003000,7.4160029296875,-2.0968571284383533,-1.061596308023855,-1.8898260509826241
1772456323405021000,7.42602099609375,-5.732283422559499,-1.1632171190463005,-2.7606033614873886
1772456323415040000,7.4360400390625,-9.005528263393044,-1.6795150750733912,-3.3445991814732547
1772456323425057800,7.446057861328125,-10.223377866989374,-2.59774854875803,-3.277214621247351
1772456323435076900,7.456076904296875,-9.314515302109717,-2.571965872725844,-2.5404750481799243
1772456323445095000,7.466094970703125,-8.922108221906424,-1.2333734820730984,-1.1350588729891926
1772456323455114000,7.476114013671875,-10.372018276405333,-0.22457082579955456,0.04814372531892731
1772456323465132000,7.486132080078125,-12.159752757048606,0.3808008135616779,0.906151040898636
1772456323475149800,7.49614990234375,-14.04192960845232,1.5119083916418254,1.3306141052499412
1772456323485169000,7.5061689453125,-16.763963877570628,2.7421780624806877,1.7704785176768898
1772456323495187000,7.51618701171875,-18.799661896169184,2.81600960688889,1.8690448364995418
1772456323505205800,7.526205810546875,-18.21409488134384,2.210302305832505,1.5774585760474205
1772456323515224000,7.53622412109375,-15.11964184256196,1.551056599073112,1.7516183343842624
1772456323525243100,7.5462431640625,-11.187616866654157,0.6894971987687051,1.4486369658231735
1772456323535261000,7.556260986328125,-6.692913584077358,-0.005709463687986135,0.824571951103583
1772456323545280000,7.566280029296875,-0.9209691822588443,-0.640552258335799,0.08108884032638743
1772456323555297800,7.5762978515625,4.927354110363125,-0.6675793814711273,-0.47746075077373534
1772456323565316900,7.58631689453125,9.162560069057346,-0.32892055032923817,-0.6696794224902987
1772456323575335000,7.5963349609375,11.415355947226285,0.025934651723504065,-0.5105952143408358
1772456323585353700,7.606353759765625,12.097945412433146,0.2597196613963693,-0.1776016789516434
1772456323595372000,7.6163720703125,11.940372339498996,0.368483695236966,0.20041425313185898
1772456323605391000,7.62639111328125,11.363175678133963,0.5399330986365676,0.561216527020745
1772456323615409000,7.636408935546875,10.632570077776908,0.877575592342764,0.8938707474529742
1772456323625427000,7.646427001953125,10.165812982249259,1.0900935037117452,0.9605640374790877
1772456323635445800,7.65644580078125,10.116355416119099,1.2775539845831692,0.7799500615015625
1772456323645464000,7.666464111328125,10.344496647751331,1.4739882647007703,0.6268675779849291
1772456323655483000,7.67648291015625,10.2673058560431,1.2916823170483112,0.5331210805341601
1772456323665501000,7.6865009765625,9.872228679847717,1.056155139883235,0.3155148330502212
1772456323675520000,7.69652001953125,9.313183761245012,1.1905337997127323,0.3768816308239475
1772456323685538000,7.7065380859375,8.869174504098295,1.1183382590085267,0.44186928597595543
1772456323695556900,7.716556884765625,8.361517242905498,0.872175632995367,0.33555549483168867
1772456323705575000,7.726574951171875,7.670294389387965,0.6619668753515928,0.2763930021692067
1772456323715594000,7.736593994140625,6.6955182136178015,0.38321452363990244,0.17706457640025763
1772456323725612000,7.746612060546875,5.936722876086831,0.07406045779325067,0.13389960760828107
1772456323735631000,7.756631103515625,5.499858229997754,-0.16406776871569453,-0.06209967862553894
1772456323745649000,7.76664892578125,4.973316235592961,-0.338581528121978,-0.33681576055847107
1772456323755667000,7.7766669921875,4.315042296475172,-0.6817226923096925,-0.7062466735176741
1772456323765686000,7.78668603515625,2.5156588790923355,-1.1241406616769731,-1.0330532273676245
1772456323775703800,7.796703857421875,-0.07722703206539154,-1.1786172980781644,-1.1516519150674343
1772456323785723000,7.806722900390625,-2.6319331424325703,-1.1849126718953251,-1.2358235055737197
1772456323795741000,7.816740966796875,-5.400135288485885,-1.3632770423151552,-1.69202661999166
1772456323805760000,7.826760009765625,-8.87078661547005,-1.9148880115248261,-2.1209164878092706
1772456323815778000,7.836778076171875,-12.032912676030397,-2.9935382571369407,-2.4220469678066667
1772456323825796900,7.846796875,-13.43727678488493,-3.3380390923053023,-2.345766276680678
1772456323835815000,7.85681494140625,-13.279247784876823,-1.9372943429917096,-1.3604144924908876
1772456323845834000,7.866833984375,-13.44964176093936,-0.6164912915296852,0.3137071260411292
1772456323855851800,7.876851806640625,-14.522441673088073,0.015637275723367927,1.3500082492887973
1772456323865870800,7.886870849609375,-15.17857567756772,0.9379733624212443,2.2067272238247093
1772456323875889000,7.896888916015625,-15.226681829088925,2.1816865983314813,3.2354379650086162
1772456323885907000,7.906906982421875,-16.433189954459667,2.760742185436189,4.030004873144627
1772456323895926000,7.916926025390625,-18.746939190763236,2.772092139229178,4.234607408279181
1772456323905943800,7.92694384765625,-17.555270907127856,2.2269489047288893,3.8163106845378874
1772456323915963000,7.936962890625,-12.59485097798705,0.9899476606126875,2.944926494181156
1772456323925981000,7.94698095703125,-7.25188952909708,-0.3499025480814278,1.778025864316523
1772456323935999200,7.956999267578125,-1.2652087361425162,-0.8852087175697088,0.5382375467650592
1772456323946017300,7.967017333984375,3.9640152744084594,-0.8348113863714038,-0.2786227705152705
1772456323956036400,7.977036376953125,8.398742519450186,-0.8791337815701961,-0.8770808676283806
1772456323966054100,7.98705419921875,11.067008958023786,-1.1557548934068531,-1.1138961849078535
1772456323976073200,7.9970732421875,11.817802775406836,-1.1385346593409775,-1.0538649100542068
1772456323986091300,8.00709130859375,11.490327893841267,-0.8217021678209304,-0.744280782227218
1772456323996110000,8.017110107421875,11.066619666445254,-0.4217826661609113,-0.4918683385716751
1772456324006128400,8.02712841796875,10.527332756757735,0.03597900281064212,-0.08805389356603846
1772456324016146200,8.037146240234375,10.627938326323031,0.4184343786463141,0.14963058949708938
1772456324026165200,8.047165283203125,10.434979467231035,0.7302773913159966,0.17949282646048814
1772456324036183000,8.05718310546875,9.932371306121349,0.9397795350603759,0.09088142687585204
1772456324046202000,8.0672021484375,9.690032622310518,1.2660305739194153,0.14506127228755503
1772456324056220400,8.077220458984375,9.200987707129121,1.366390936551988,0.0928908670021221
1772456324066239200,8.0872392578125,8.413390638005733,1.45958608373031,0.11241926841251551
1772456324076257300,8.09725732421875,7.781146627679467,1.4350164367496967,0.295239303066954
1772456324086276400,8.1072763671875,7.361680275636911,1.033972095778212,0.372425930056721
1772456324096294100,8.117294189453125,7.3587804625421755,0.46464646004922683,0.40537009521611034
1772456324106313200,8.127313232421875,7.263496964782476,0.15437340011000633,0.47578160204775627
1772456324116331300,8.137331298828125,6.74995999790132,0.11967749591246246,0.38868732902780173
1772456324126350000,8.14735009765625,6.176168176543713,-0.20404665481746195,0.17632526580765842
1772456324136368400,8.157368408203125,5.289719103524089,-0.6307252763263881,-0.0020841858629137276
1772456324146387500,8.167387451171875,3.911972952482104,-0.9297514775209128,-0.06093034258522093
1772456324156405200,8.1774052734375,2.5043314293920993,-1.3379817114084958,-0.15650416506100445
1772456324166423300,8.18742333984375,1.0721785653799771,-1.8306190981239079,-0.2942241712076589
1772456324176442000,8.197442138671875,-0.812327605754137,-1.9423611248619854,-0.7069505840033292
1772456324186460200,8.207460205078124,-3.479006482875347,-2.102085384480655,-1.6367840407192706
1772456324196479200,8.217479248046875,-7.182570493677258,-2.11557001221478,-2.750755336689949
1772456324206497300,8.227497314453124,-11.129532926476001,-2.2868322955444453,-3.585276361812651
1772456324216516400,8.237516357421875,-12.784750449508428,-2.6406086163192986,-3.7750492843449113
1772456324226534100,8.2475341796875,-11.919712997829913,-2.118357158715278,-2.869201098850369
1772456324236553200,8.25755322265625,-11.115720674222707,-0.8822143580593168,-1.0901558283582329
1772456324246571300,8.2675712890625,-11.502291887879371,-0.2048192466251552,0.5869402028746903
1772456324256590000,8.277590087890625,-12.458637503945827,0.21427242688611148,1.7682041430041193
1772456324266608000,8.287608154296874,-13.173757950401306,0.9722858202591538,2.581991007655859
1772456324276627200,8.297627197265625,-14.324222116988896,2.0333884264819324,3.2475004509851333
1772456324286645200,8.307645263671875,-16.2299540315032,2.6509450091555715,3.144762253305316
1772456324296663300,8.317663330078124,-16.01448640348315,2.5751693449422715,2.4695579299136994
1772456324306682400,8.327682373046875,-12.846802124273776,2.158386240634322,1.8632792587101459
1772456324316700200,8.3377001953125,-8.537170162409543,1.4879900481767951,1.3484164500527083
1772456324326719200,8.34771923828125,-4.376280901291966,0.8170033424802124,1.053352795813605
1772456324336737300,8.3577373046875,0.0011456629037857055,0.08781243122667073,0.5643302385944873
1772456324346756000,8.367756103515624,4.71695428712666,-0.26802155273035166,-0.03632065585516393
1772456324356774400,8.3777744140625,9.112283587759732,-0.41690556164383885,-0.33142164642997085
1772456324366793200,8.387793212890625,11.875759289813042,-0.45376536587700245,-0.42924204225614665
1772456324376811300,8.397811279296874,12.523517095613478,-0.45234095909707245,-0.38003698958232995
1772456324386830300,8.407830322265625,12.12740882280469,-0.31730010903179645,-0.05188563352730125
1772456324396848000,8.41784814453125,11.582491798275708,-0.17220665150769054,0.34646044480353594
1772456324406867200,8.4278671875,11.306411588382721,-0.06683350221440196,0.7664715712472796
1772456324416885200,8.43788525390625,10.617579429394006,0.011849573878198861,0.8301134378135204
1772456324426904300,8.447904296875,9.930603711926937,0.1813119681790471,0.8557448688067495
1772456324436922400,8.45792236328125,9.379038335424662,0.43905850287154313,0.6243200854592025
1772456324446940200,8.467940185546874,8.519090315839648,0.5205787751514465,0.4530902430944144
1772456324456959200,8.477959228515624,7.534786433267593,0.47274062691666185,0.2146559463109821
1772456324466977000,8.48797705078125,7.039673011827468,0.48247291637994344,0.21861958924494682
1772456324476996000,8.49799609375,6.436946187886595,0.4553028776425868,0.30858083253595975
1772456324487014400,8.508014404296874,6.244699276456236,0.08569704650789499,0.22846779670547693
1772456324497033200,8.518033203125,6.288174261045455,-0.0811895790208131,0.30489056318327784
1772456324507051300,8.52805126953125,6.157081198757886,-0.19334793147481977,0.21752865220308304
1772456324517070300,8.5380703125,6.066797701242566,-0.2629659498412162,0.22454642201066016
1772456324527088000,8.548088134765624,5.489131668800115,-0.35077238971851765,0.14172310430817306
1772456324537107200,8.558107177734374,4.595135833662748,-0.5982924216900021,-0.1980067901313305
1772456324547125200,8.568125244140624,3.808096398422122,-0.6514215159397572,-0.34143859805352983
1772456324557144000,8.57814404296875,1.8470359799176455,-0.6517053743824363,-0.892286473936215
1772456324567162400,8.588162353515624,-1.5234849937975405,-0.7397472304508089,-1.736945373648405
1772456324577180200,8.59818017578125,-5.341211390352249,-0.849114783142507,-2.56514800940454
1772456324587199200,8.60819921875,-9.734925657004117,-1.258483811801672,-3.3453707503676413
1772456324597217300,8.61821728515625,-12.669628863334655,-2.3125645565636455,-3.6790798501476645
1772456324607236000,8.628236083984374,-12.28220074058771,-2.7300422190070153,-3.205771725541353
1772456324617254100,8.638254150390624,-11.400627164649963,-1.4637112008363007,-1.8021201488703489
1772456324627273200,8.648273193359374,-12.011473582160471,0.008196019806712865,-0.3923153102666139
1772456324637291300,8.658291259765624,-13.186421032619476,0.5283041817717253,0.4690603309687227
1772456324647310300,8.668310302734374,-13.986977536559104,0.8742470324419438,0.8472489162053912
1772456324657328000,8.678328125,-14.36853004527092,1.5376362687468528,1.0957992410726844
1772456324667347200,8.68834716796875,-15.181698193502426,2.528765028902888,1.4817980616688728
1772456324677365200,8.698365234375,-15.518904195487499,2.8702301496371625,1.5093432173289358
1772456324687384000,8.708384033203124,-13.503172275596857,2.4844182299152013,1.3021623561389744
1772456324697402000,8.718402099609374,-9.478848370698094,1.7173204895935952,1.0711864856027067
1772456324707421200,8.728421142578124,-4.795623919215798,0.9736438838046043,0.8732242652654647
1772456324717439200,8.738439208984374,-0.27792379193305966,0.46694319268427786,0.7287888332586735
1772456324727457300,8.748457275390624,4.207137802073359,-0.2847456738423556,0.36462913870066405
1772456324737476400,8.758476318359374,8.05479522651136,-0.8700845059350133,-0.06151330270548351
1772456324747494100,8.768494140625,10.979046596932411,-1.0958019444864242,-0.22144710428845135
1772456324757513200,8.77851318359375,12.612303632569313,-1.3652256921648978,-0.2159574573636055
1772456324767531300,8.78853125,12.631927201449871,-1.5706927351742983,-0.1405810307341162
1772456324777550300,8.79855029296875,11.862394781327247,-1.5070111211195587,0.03853725419240072
1772456324787568400,8.808568359375,10.792463702613114,-1.4125392320036887,0.20558913501910864
1772456324797587200,8.818587158203124,9.585881342962384,-1.1675277487870306,0.19169325960297137
1772456324807605200,8.828605224609374,8.495523562291265,-0.8059825475763529,0.005213496864587068
1772456324817624300,8.838624267578124,7.76258455055058,-0.48515470280982553,-0.08439885992351918
1772456324827642000,8.84864208984375,7.202488661590218,-0.20381321138776837,-0.19046178157925606
1772456324837661200,8.8586611328125,6.751216135442257,0.04744133093692362,-0.08510529115982353
1772456324847679200,8.86867919921875,6.23460282985568,0.09014211628325283,0.1099227023564279
1772456324857697300,8.878697265625,5.9283548607140775,-0.1744942509882152,0.4268590561097488
1772456324867716400,8.88871630859375,5.974626782545447,-0.2777255659472197,0.6424835917245596
1772456324877734100,8.898734130859374,6.13490034660995,-0.2859282346904278,0.8903929883398115
1772456324887753200,8.908753173828124,6.040684185820818,-0.2531975661512464,0.8816139079481363
1772456324897771000,8.91877099609375,5.466960753524303,-0.22109745060056446,0.7901082482267171
1772456324907790000,8.9287900390625,4.265583561301231,-0.24602219462916253,0.7648128442548215
1772456324917808400,8.938808349609374,2.680835997289419,-0.3539194555725902,0.2626077109880745
1772456324927827200,8.9488271484375,1.43924369905591,-0.6576400981936603,-0.10066964777745306
1772456324937845800,8.958845703125,0.11521569419801235,-1.0769807049646973,-0.6816779033198952
1772456324947864800,8.96886474609375,-2.611071556189656,-1.2817527514472602,-1.1316128241885453
1772456324957882600,8.978882568359374,-6.553605066630244,-1.9647088580094276,-1.789120674304664
1772456324967901700,8.988901611328124,-10.333133542215824,-2.835374232572317,-2.752054728850722
1772456324977919500,8.99891943359375,-11.353096182668208,-3.312794760933518,-3.283922886714339
1772456324987938600,9.0089384765625,-9.614166357204317,-1.9674349219724534,-2.661156022046506
1772456324997956900,9.018956787109374,-8.823655446460842,-0.36983605969399214,-1.6480610754065215
1772456325007974700,9.028974609375,-9.70625836544633,0.07399827927723526,-0.8392369477286934
1772456325017993700,9.03899365234375,-10.87719950287342,0.8174773897327482,-0.13764750716602428
1772456325028011800,9.04901171875,-12.732253369551897,1.8793892665117977,0.7049454547259956
1772456325038030600,9.059030517578124,-15.500117661952972,2.548258833923936,1.2420580160491168
1772456325048048600,9.069048583984374,-17.38377686086893,2.542922441332042,1.4558971660844982
1772456325058067700,9.079067626953124,-16.26396969835162,2.3705074808359146,1.4606030056878923
1772456325068085800,9.089085693359374,-12.14469313508272,1.9814710461094975,1.618010074405372
1772456325078104800,9.099104736328124,-7.175345803120732,1.0265649613268673,1.337620623011142
1772456325088122600,9.10912255859375,-2.9013240838199854,0.29906156476885076,1.009117055984959
1772456325098141700,9.1191416015625,1.3928735775470733,0.14233561018332838,0.7117983893606812
1772456325108159700,9.12915966796875,6.028751171442866,-0.15522972467839716,0.48277748881708826
1772456325118178600,9.139178466796874,9.881908362340926,-0.3354235024824738,0.3669554992889985
1772456325128196600,9.149196533203124,11.45602347317934,-0.5776924089927226,0.35048206500243395
1772456325138215700,9.159215576171874,11.41888879752755,-0.835531955730915,0.34965116713624445
1772456325148233700,9.169233642578124,11.080645853710173,-0.9139579883225262,0.6075078111397102
1772456325158251800,9.179251708984374,10.747241582095622,-0.9145738551985472,0.8500933458510785
1772456325168270600,9.1892705078125,10.224769029086827,-0.9095625298425555,1.023815224227309
1772456325178288600,9.19928857421875,9.469087439662218,-0.70502809150815,1.0010909859176724
1772456325188307700,9.2093076171875,8.819336998739837,-0.5565596045929938,0.5883505080640316
1772456325198325800,9.21932568359375,8.239086795023082,-0.2601197666298598,0.2158630570784211
1772456325208344600,9.229344482421874,7.793134002593159,0.16378763660006224,-0.08636573954969644
1772456325218363000,9.23936279296875,7.624720971214771,0.43198987965956326,-0.272545459895581
1772456325228381700,9.249381591796874,7.275372111493349,0.42788646292872723,-0.4504051687289029
1772456325238399700,9.259399658203124,7.071442361053824,0.5111321707617491,-0.39042401662729675
1772456325248418800,9.269418701171874,6.989062768530845,0.43119105743207037,-0.12228881092201918
1772456325258436600,9.2794365234375,6.769184922853112,0.05346176027022302,0.026375892684981226
1772456325268455700,9.28945556640625,6.23242080964148,-0.07083820781111717,0.16712964050434528
1772456325278473700,9.2994736328125,5.28792520584464,-0.24562223552614448,0.2970095276098698
1772456325288492800,9.309492919921874,4.6978351606369015,-0.46751543961428105,0.21347652726806698
1772456325298510800,9.3195107421875,4.20398489100039,-0.6341650415167213,-0.03025302637927234
1772456325308528600,9.329528564453126,3.001303630441427,-0.6499414334498346,-0.5692410261854529
1772456325318547700,9.339547607421874,0.9459808739185332,-0.9358381039582192,-1.0244076371625066
1772456325328565500,9.3495654296875,-2.3811516244471074,-1.2402740552417932,-1.6269345546171068
1772456325338584600,9.35958447265625,-6.3901242309570305,-1.6876263392060995,-2.233123940102011
1772456325348603000,9.369602783203124,-9.879157602328062,-2.378428190832585,-2.2557971058115363
1772456325358621700,9.37962158203125,-11.443241148495673,-2.7846792336016892,-2.0349391630552707
1772456325368639700,9.3896396484375,-11.111272462642193,-1.5906991658926009,-1.4516260646365582
1772456325378658800,9.399658935546874,-10.468286693549155,-0.5125039705716073,-0.5101523294115439
1772456325388676600,9.409676513671876,-11.01161264949441,-0.1433496095314622,0.2944866215361282
1772456325398695700,9.41969580078125,-13.71782624914646,0.5801910208754241,0.81634334420152
1772456325408713500,9.42971337890625,-16.834295889425277,1.8890859001398086,1.2347712200418115
1772456325418732500,9.439732666015624,-17.981151217865943,3.1421003406196832,1.558582464533299
1772456325428750800,9.449750732421874,-16.816845572930575,3.451732691502571,1.4070691300295293
1772456325438769700,9.459769775390624,-13.831122957980632,3.0117279938220975,1.012748105963692
1772456325448787700,9.46978759765625,-10.081800820088386,2.3706118179932236,0.7125815756276249
1772456325458805800,9.4798056640625,-6.004409926390648,1.5894707931414245,0.6031317514799535
1772456325468824600,9.489824462890626,-1.9740905804693698,0.8275339427143334,0.5957413489677011
1772456325478842600,9.499842529296876,1.9725655628591774,0.08111132615283131,0.5507706824606284
1772456325488861700,9.50986181640625,5.459502838733792,-0.5615744370803236,0.37664190378393975
1772456325498879700,9.519879638671876,8.437118135073781,-0.8093024857793003,0.15871774945724754
1772456325508898800,9.52989892578125,10.405424871444701,-0.9768605077635496,0.17938275368213652
1772456325518916600,9.53991650390625,11.590809544765948,-1.3773527678102253,0.23184364808043464
1772456325528935700,9.549935791015624,12.503379147469996,-1.7354361381292343,0.23146208315063266
1772456325538953700,9.55995361328125,12.590926498019694,-1.8439751310423016,0.42458709258977323
1772456325548972500,9.56997265625,11.78689325788021,-1.598212171871215,0.6095462946973741
1772456325558990600,9.579990478515626,10.667005431342124,-1.1485497843336314,0.6095693467793986
1772456325569009700,9.590009765625,9.45986894493997,-0.9670018154416232,0.4855048314217478
1772456325579027700,9.60002783203125,7.621468106898665,-0.9150796858288347,0.12174023712854831
1772456325589046800,9.610046875,5.914259699866175,-0.6759806415263563,-0.18718023915793747
1772456325599064600,9.620064697265626,5.076389072054624,-0.2757123994939029,-0.26862700781021265
1772456325609082600,9.63008251953125,4.918759885019064,0.04117014171294868,-0.20162560168299823
1772456325619101700,9.640101806640626,4.996951962724328,0.1618126832652837,-0.05680679638180881
1772456325629119700,9.65011962890625,5.445999798560142,0.15995134637281297,0.08025189631190151
1772456325639138800,9.660138916015624,6.20153584203422,0.052753246674686664,0.10326211195606738
1772456325649156900,9.670156982421876,6.966414883393049,-0.17026881531290708,-0.09501567713636905
1772456325659175700,9.68017578125,7.019298916840553,-0.18123408063724636,-0.015732297063060105
1772456325669193700,9.69019384765625,5.911618829968571,-0.4892060970924794,0.1932711033789441
1772456325679212800,9.700212890625,3.8568490311533212,-1.2574123831778763,-0.11481390846408902
1772456325689230600,9.710230712890626,0.5652279911518097,-1.6924065592199562,-0.28172574149928986
1772456325699249700,9.720249755859374,-2.75028713465631,-2.0184142908424136,-0.8696781170912087
1772456325709267700,9.730267822265626,-6.758811997398734,-2.301178216283023,-1.895630061086267
1772456325719286800,9.740286865234374,-11.12643729854822,-2.813469859278202,-2.765251479554176
1772456325729304800,9.750304931640626,-13.472304843646286,-3.477180728752911,-3.157969525402784
1772456325739323600,9.76032373046875,-12.963236546611785,-3.0292589743375777,-2.889673978036642
1772456325749341700,9.770341796875,-12.562111906945704,-1.111305730023235,-1.4771850149154662
1772456325759359500,9.780359375,-13.458319572913647,0.24823329480737447,0.3453868242226541
1772456325769378600,9.790378662109376,-14.223083463460206,0.7859934333190322,1.547621802318841
1772456325779396900,9.80039697265625,-14.546364984989165,1.289528646145761,2.302641420703381
1772456325789415700,9.810415771484376,-15.386982281160353,2.069036516837776,2.5987667858898638
1772456325799433700,9.820433837890626,-16.92224071485996,2.898523931707442,2.485327161453664
1772456325809452800,9.830452880859376,-16.390620394277573,2.735189518767595,1.8407577764309941
1772456325819470600,9.840470703125,-12.504613657701015,1.6231309245504437,0.9258339387509972
1772456325829489700,9.85048974609375,-6.046801791918277,0.7686018612742423,0.14865383515311403
1772456325839507500,9.860507568359376,0.15211539205014704,0.23007855637036262,-0.17552341137286276
1772456325849526500,9.870526611328126,4.628438383805752,-0.20368556642010807,-0.23201138759646564
1772456325859544800,9.880544921875,8.300476206487417,-0.7620696830265223,-0.3477266288144514
1772456325869563600,9.890563720703126,10.628564933788775,-0.7407667096916586,-0.06215104348659515
1772456325879581700,9.900581787109376,11.94178220629692,-0.7464407367400825,0.30300425624633204
1772456325889600800,9.910600830078126,12.27746260614991,-0.8023157686971127,0.45910526560023424
1772456325899618600,9.92061865234375,12.192637958562374,-0.8337157731544226,0.7473203691188246
1772456325909637600,9.9306376953125,11.79715044800043,-0.7792453472983092,0.8651150469593704
1772456325919655700,9.94065576171875,11.44544713410735,-0.5344415885481983,0.8251615144945681
1772456325929673700,9.950673828125,10.825247197318076,-0.25728593144342304,0.6060869845563546
1772456325939692000,9.960692138671876,9.80998761999011,0.09926328811086714,0.35090814492739736
1772456325949709800,9.970709716796875,9.02678031025827,0.45654264857061205,0.18129746472965924
1772456325959729000,9.98072900390625,8.727721960359812,0.5985339022956788,0.04396119720358401
1772456325969747000,9.990746826171875,8.217398110306263,0.6185602798234671,0.09146006701402365
1772456325979766000,10.00076611328125,7.587994876363873,0.6031975101925432,0.32676110727302726
1772456325989784000,10.0107841796875,7.170725742104649,0.5830439991537482,0.5602391333559528
1772456325999803000,10.020802978515626,6.776824623951316,0.5991367635596543,0.8983992577280848
1772456326009821000,10.030821044921876,6.667514938926696,0.3397054906506091,1.1350329348303376
1772456326019840000,10.040840087890626,6.545527558636665,-0.030379283107444643,1.2607388972520828
1772456326029857800,10.05085791015625,5.949351471513509,-0.2291542080670595,1.1626888573884964
1772456326039876900,10.060876953125,4.46956124253571,-0.3317536548633128,0.8745983300976454
1772456326049895200,10.070895263671876,2.7506121288269756,-0.7891209176898002,0.39810752033460883
1772456326059914000,10.0809140625,0.9890794264107942,-1.065968970150128,-0.04124839458093047
1772456326069932000,10.09093212890625,-1.9614274982511997,-1.2065902506962418,-0.9401622507676481
1772456326079949800,10.10094970703125,-6.1326248028934,-1.4110846492812037,-2.549075703264773
1772456326089969000,10.110968994140626,-10.256102909505367,-1.5751191733144223,-3.7071222878053782
1772456326099987000,10.120987060546875,-13.612327062320709,-2.379258504176885,-4.572740461981296
1772456326110005800,10.131005859375,-14.494054952037333,-2.57822084146738,-4.201248744034767
1772456326120024000,10.141024169921875,-14.459616091340779,-0.9349905472181737,-2.346101353853941
1772456326130043100,10.151043212890626,-15.148493843036889,0.2858468400172889,-0.0990430968883913
1772456326140061000,10.16106103515625,-16.0044349650681,0.7069146359071136,1.3781304741844533
1772456326150080000,10.171080078125,-17.595805162090063,1.4067033654570578,2.135381212621927
1772456326160097800,10.181097900390625,-20.35637462130785,2.8809304073497652,2.3799314350023866
1772456326170116900,10.191116943359376,-22.095825255775452,4.300191933345794,2.3919373684860763
1772456326180135000,10.201135009765625,-19.47481975007057,3.8980022947967052,2.2186497168086468
1772456326190153700,10.21115380859375,-12.944929321026802,2.1838334011018277,1.772308509583026
1772456326200172000,10.221172119140626,-6.317756913882493,0.9570382745057344,1.42479928637892
1772456326210191000,10.231191162109376,-0.5859744265824556,0.11536978878118097,1.045341777184978
1772456326220209000,10.241208984375,5.194421577239036,-0.9786674841202795,0.42099429226219653
1772456326230227000,10.25122705078125,10.358667796444893,-1.6282941525325179,-0.25966363862650466
1772456326240246000,10.26124609375,13.238861998474597,-1.6690443883329629,-0.2828785830625333
1772456326250263800,10.271263916015625,13.583309057629108,-1.540202027581632,-0.10162946925293653
1772456326260283000,10.281282958984375,12.218490192699432,-1.3266022392600774,0.14836645131278783
1772456326270301000,10.291301025390625,10.889867261266708,-0.9556174479223787,0.3060472224051133
1772456326280320000,10.301320068359376,10.006301634728908,-0.5412080870084465,0.2913031691944226
1772456326290338000,10.311338134765625,9.1761081174165,-0.26616869140528143,0.2908027636579238
1772456326300356900,10.32135693359375,8.479011403429508,0.12300474063903093,0.17592883210228755
1772456326310375000,10.331375,7.671955016076565,0.42608664696514603,0.03644813642604276
1772456326320393000,10.34139306640625,6.940616425269842,0.5021435392726212,-0.10077111712424083
1772456326330412000,10.351412109375,6.797564629641175,0.7998046626590192,-0.06689111415315419
1772456326340430000,10.36143017578125,7.2870064351856705,0.9932407838739454,0.18457838609647004
1772456326350449000,10.371448974609375,7.634334018212557,0.8935831626832484,0.24134978237133473
1772456326360467000,10.381467041015625,8.203496426203847,0.8503229898884892,0.32303704524859783
1772456326370486000,10.391486083984375,8.545790106716751,0.8429664896458386,0.2402321217193268
1772456326380503800,10.40150390625,8.314744970336555,0.8384929974935948,0.1912770434848964
1772456326390523000,10.41152294921875,7.655682511189579,0.7955304924711585,0.055664604076743125
1772456326400541000,10.421541015625,6.986728188103437,0.6783927441693842,-0.05238273286186158
1772456326410560000,10.43156005859375,6.347362947595119,0.4487671191982925,-0.15011709437239915
1772456326420578000,10.441578125,6.155866562271118,0.053914983930438753,-0.19628935522157698
1772456326430596900,10.451596923828125,5.6725452854335305,-0.4313743781097233,-0.3673045684549957
1772456326440615000,10.461614990234375,3.8938258858948944,-0.7165266599915922,-0.49819882023483514
1772456326450634000,10.471634033203125,1.359406776753068,-1.2215066647991537,-0.8280479566510767
1772456326460651800,10.48165185546875,-1.800081336519122,-1.7420784987531601,-1.144020981797576
1772456326470670000,10.491670166015625,-5.800341059741378,-1.8942714860841632,-1.440736714092642
1772456326480689200,10.501689208984375,-9.408062185335158,-2.1079978233948347,-1.6714343522094188
1772456326490707000,10.51170703125,-11.003919172382354,-2.5178841539263725,-1.8944339831694958
1772456326500726000,10.52172607421875,-10.439466257256269,-2.0907072275064884,-1.5088283996745944
1772456326510743800,10.531743896484375,-9.82114146668911,-0.7247625734172761,-0.3827415723659098
1772456326520763000,10.541762939453125,-10.101727171307802,-0.007164484801888466,0.509491819676198
1772456326530781000,10.551781005859375,-10.442245074319839,0.5472333386473357,1.0576610874667762
1772456326540799700,10.5617998046875,-10.151052635490894,1.3164074468515812,1.5026907737024127
1772456326550818000,10.571818115234375,-10.041690928018092,1.7569842453315854,1.6737971358180046
1772456326560837000,10.581837158203125,-10.212350277018546,1.6500046106897293,1.7088814548112452
1772456326570855000,10.59185498046875,-9.570571545627713,1.2493906970247626,1.6908935243085026
1772456326580874000,10.6018740234375,-8.113065629172326,0.6407077411584555,1.3674683565251529
1772456326590891800,10.611891845703125,-6.251926305100321,-0.058589405482262366,1.0478044409714637
1772456326600910800,10.621910888671875,-3.7681092559486626,-0.6497361201360822,0.8579971047129481
1772456326610929000,10.631928955078125,-1.2864905936241149,-0.975120166902244,0.6276655964948237
1772456326620947700,10.64194775390625,1.153422431871295,-1.2362040293239056,0.2874434980915859
1772456326630966000,10.651966064453125,3.055109454908967,-1.4368968436688183,-0.11784391467659734
1772456326640985000,10.661985107421875,4.388972040560842,-1.669631540571153,-0.5248329985298216
1772456326651003000,10.6720029296875,5.485836134386062,-1.7821821072131394,-0.699860333481431
1772456326661021000,10.68202099609375,5.548223324716091,-1.3614046725720166,-0.756779832990095
1772456326671040000,10.6920400390625,4.738431959441304,-0.9107539315842091,-0.6445651472389697
1772456326681058000,10.70205810546875,3.665391224274039,-0.7293240361139178,-0.5432889118704944
1772456326691077000,10.7120771484375,3.291298968440294,-0.44843744885250925,-0.37509164213463664
1772456326701095000,10.722094970703125,3.248704273816943,-0.15432561544552445,-0.08355018893862143
1772456326711114000,10.732114013671875,3.1600504233300684,0.04835471945479512,-0.08167502445019781
1772456326721132000,10.742132080078125,3.317847368147969,0.23853432309180497,-0.0778117183518596
1772456326731150800,10.75215087890625,3.419263085052371,0.6195397193148732,-0.29234036675505337
1772456326741169000,10.7621689453125,3.037874826991558,0.6757128574356437,-0.19069277732353657
1772456326751188000,10.77218798828125,2.715670579305291,0.6715656746283173,-0.37587709342390296
1772456326761206000,10.7822060546875,2.6978888388991353,0.9492145951427519,-0.13731046636453828
1772456326771225000,10.79222509765625,3.0059540865957737,0.945097369082272,-0.2308483169001527
1772456326781243000,10.802242919921875,3.4069062923043965,0.9300409619867801,-0.11554342831503599
1772456326791262000,10.812261962890625,3.210012431851029,0.9601984921023249,0.13238307469864374
1772456326801280000,10.822280029296875,2.2913152861773964,1.0589891212001443,0.37107714579626916
1772456326811298800,10.832298828125,1.414261818012595,1.1279653345316647,0.49349119053315366
1772456326821316900,10.84231689453125,0.5821686045587062,1.0554608009435236,0.5446841290885582
1772456326831335000,10.8523349609375,-0.2987397854685783,0.9876642989158629,0.38432975487280635
1772456326841354000,10.86235400390625,-0.927838483506441,0.9736448336526751,0.2055471225082874
1772456326851372000,10.8723720703125,-1.258507777199149,0.9737050394073128,-0.07010425838022492
1772456326861390800,10.882390869140625,-1.4267472055763006,1.00533629533723,-0.18372776061650364
1772456326871409000,10.892408935546875,-1.834591508886218,0.8528663907609879,-0.142341537600616
1772456326881428000,10.902427978515625,-2.018061239621043,1.0480268515504896,-0.13955374264614656
1772456326891445800,10.91244580078125,-1.9682851090610025,1.5768063957490026,0.08225728131756185
1772456326901464800,10.92246484375,-2.0476485686331984,1.728109886894375,0.5372879909552634
1772456326911483100,10.932483154296875,-2.5260727210789917,1.2955750867031515,0.6479978981666267
1772456326921502000,10.942501953125,-1.8066577922999858,1.0681342584252358,0.8050975814353675
1772456326931520000,10.95252001953125,-2.325218140301108,0.8552361886322498,0.9180091634094715
1772456326941539300,10.962539306640625,-2.7071570179820057,-0.10499021439030766,1.186638911166042
1772456326951557400,10.972557373046875,-1.8925749112993477,0.13877499509230254,1.1432312927246093
1772456326961576200,10.982576171875,-0.4153331977605819,0.1474738498546183,0.6428822356533259
1772456326971594200,10.99259423828125,0.09010989451408385,-0.45272973921895027,0.1280029507851228
1772456326981613300,11.00261328125,-1.1128910995185375,-0.5720106370292604,-0.07417089589778333
1772456326991631400,11.01263134765625,-1.8292472252488134,-0.6997831765919923,-0.22285521752070633
1772456327001649400,11.0226494140625,-1.3485440219551323,-0.9050947367787361,-0.2630793105551973
1772456327011668200,11.032668212890625,-0.06420622245073318,-0.884685132087022,-0.42066454885117704
