time,seconds_elapsed,z,y,x
1772456316051471400,0.072471435546875,0.07302688807249069,-0.09931278973817825,-0.0987037792801857
1772456316061490200,0.082490234375,0.06701213866472244,-0.13009412586688995,-0.07415954768657684
1772456316071508200,0.09250830078125,0.05188499763607979,-0.11061687022447586,-0.05662018433213234
1772456316081527300,0.10252734375,0.0445043109357357,-0.0630331039428711,-0.040902476757764816
1772456316091545000,0.112545166015625,0.043600212782621384,-0.01158222183585167,-0.02717694640159607
1772456316101564200,0.122564208984375,0.04098685085773468,0.01658150553703308,-0.034246306866407394
1772456316111582200,0.132582275390625,0.034463003277778625,0.009239732287824154,-0.06302743405103683
1772456316121601000,0.14260107421875,0.03262995183467865,-0.008182134479284286,-0.1123286709189415
1772456316131619300,0.152619384765625,0.031381603330373764,0.006441519595682621,-0.1717700958251953
1772456316141638400,0.162638427734375,0.0354306735098362,0.01079871691763401,-0.2167855054140091
1772456316151656200,0.17265625,0.04820792376995087,-0.0004421006888151169,-0.2289377599954605
1772456316161674200,0.18267431640625,0.06733767688274384,0.009180165827274323,-0.1958242803812027
1772456316171693000,0.192693115234375,0.07887810468673706,0.024016931653022766,-0.14676062762737274
1772456316181711000,0.202711181640625,0.09697002172470093,0.026108046993613243,-0.11486048996448517
1772456316191730200,0.212730224609375,0.10744260251522064,0.03777274861931801,-0.11064375191926956
1772456316201748200,0.222748291015625,0.12263114750385284,0.05391736328601837,-0.11059075593948364
1772456316211767300,0.232767333984375,0.135436549782753,0.046652499586343765,-0.09195151180028915
1772456316221785300,0.242785400390625,0.12314952909946442,0.016275685280561447,-0.07797444611787796
1772456316231804200,0.25280419921875,0.10292936861515045,0.004972667433321476,-0.06986186653375626
1772456316241822200,0.262822265625,0.08263368159532547,-0.005510333459824324,-0.07371971756219864
1772456316251841300,0.27284130859375,0.09517085552215576,-0.03806179389357567,-0.0632757842540741
1772456316261859000,0.282859130859375,0.10248363018035889,-0.05221516638994217,-0.01935919187963009
1772456316271877400,0.29287744140625,0.1191912367939949,-0.025890883058309555,0.03508221358060837
1772456316281896200,0.302896240234375,0.1504114717245102,0.005418836139142513,0.07084739953279495
1772456316291914200,0.312914306640625,0.17952454090118408,0.045961376279592514,0.07056475430727005
1772456316301933300,0.322933349609375,0.22333887219429016,0.0216365996748209,0.01911834441125393
1772456316311951000,0.332951171875,0.2628856599330902,-0.02389741875231266,-0.03498971462249756
1772456316321970200,0.34297021484375,0.3038589358329773,-0.09565575420856476,-0.05418924242258072
1772456316331988200,0.35298828125,0.3483314514160156,-0.18367166817188263,-0.028127502650022507
1772456316342007000,0.363007080078125,0.3711691200733185,-0.26085248589515686,0.08075183629989624
1772456316352025300,0.373025390625,0.3919554054737091,-0.28652140498161316,0.2714548110961914
1772456316362044200,0.383044189453125,0.41273126006126404,-0.2652566134929657,0.5487961769104004
1772456316372062200,0.393062255859375,0.4141421914100647,-0.23091088235378265,0.8520827293395996
1772456316382081300,0.403081298828125,0.4046751856803894,-0.19421544671058655,1.0493968725204468
1772456316392099000,0.41309912109375,0.35215845704078674,-0.21231941878795624,1.04932701587677
1772456316402118100,0.4231181640625,0.2668384909629822,-0.2616909444332123,0.8020559549331665
1772456316412136200,0.43313623046875,0.19845585525035858,-0.3726811110973358,0.37267574667930603
1772456316422154200,0.443154296875,0.15408892929553986,-0.4702305495738983,-0.04255393147468567
1772456316432173300,0.45317333984375,0.13932856917381287,-0.5043194890022278,-0.2648768723011017
1772456316442191000,0.463191162109375,0.11655694991350174,-0.4024314880371094,-0.1686805635690689
1772456316452210200,0.473210205078125,0.13265860080718994,-0.28354141116142273,0.19668081402778625
1772456316462228200,0.483228271484375,0.138480544090271,-0.25836920738220215,0.654244065284729
1772456316472247000,0.4932470703125,0.10840145498514175,-0.3275063931941986,1.030774712562561
1772456316482265300,0.503265380859375,0.07024048268795013,-0.4614570140838623,1.1891825199127197
1772456316492284400,0.513284423828125,-0.0035693817771971226,-0.5055598616600037,1.072643518447876
1772456316502302200,0.52330224609375,-0.11748210340738297,-0.3273927867412567,0.7278409004211426
1772456316512321300,0.5333212890625,-0.19440874457359314,-0.05926002562046051,0.2511295676231384
1772456316522339000,0.543339111328125,-0.21641844511032104,0.12948459386825562,-0.24697956442832947
1772456316532358100,0.553358154296875,-0.1930980086326599,0.24563348293304443,-0.6248931288719177
1772456316542376200,0.563376220703125,-0.10070230811834335,0.3263986110687256,-0.8055673241615295
1772456316552394200,0.573394287109375,0.007300464902073145,0.25166308879852295,-0.8145586252212524
1772456316562413300,0.583413330078125,0.09996462613344193,0.06869809329509735,-0.762365460395813
1772456316572431000,0.59343115234375,0.15269474685192108,-0.11858543008565903,-0.6944262385368347
1772456316582450200,0.6034501953125,0.15593847632408142,-0.3108387589454651,-0.5927568674087524
1772456316592468200,0.61346826171875,0.10972507297992706,-0.44641581177711487,-0.5196357369422913
1772456316602487000,0.623487060546875,0.0564245730638504,-0.3891679644584656,-0.5514053702354431
1772456316612505000,0.633505126953125,0.058055147528648376,-0.062391310930252075,-0.6840180158615112
1772456316622524200,0.643524169921875,0.15210947394371033,0.3402828872203827,-0.8016133308410645
1772456316632542200,0.653542236328125,0.29032501578330994,0.8400136232376099,-0.8064545392990112
1772456316642561300,0.663561279296875,0.44408872723579407,1.5115904808044434,-0.6634539365768433
1772456316652579300,0.673579345703125,0.5473271012306213,2.1138031482696533,-0.42313632369041443
1772456316662598100,0.68359814453125,0.6021499037742615,2.4825620651245117,-0.17108970880508423
1772456316672616200,0.6936162109375,0.6108664274215698,2.469606637954712,-0.012043854221701622
1772456316682634200,0.70363427734375,0.5736940503120422,2.0670711994171143,0.152153879404068
1772456316692653000,0.713653076171875,0.4664936363697052,1.453641414642334,0.34434908628463745
1772456316702671400,0.72367138671875,0.32009726762771606,0.8295801877975464,0.5047075748443604
1772456316712690200,0.733690185546875,0.22082927823066711,0.3537457287311554,0.6296606659889221
1772456316722708200,0.743708251953125,0.17954495549201965,-0.03564595431089401,0.7188411355018616
1772456316732727300,0.753727294921875,0.1433214396238327,-0.45416757464408875,0.7836310863494873
1772456316742745000,0.7637451171875,0.0822567492723465,-0.786678671836853,0.8169330954551697
1772456316752764200,0.77376416015625,-0.011110438033938408,-0.8903151154518127,0.5767315626144409
1772456316762782200,0.7837822265625,-0.0686459019780159,-0.9746878147125244,0.26826080679893494
1772456316772801300,0.79380126953125,-0.08072472363710403,-0.998871922492981,0.07393355667591095
1772456316782819300,0.8038193359375,-0.10881707817316055,-1.051177740097046,-0.09372175484895706
1772456316792838100,0.813838134765625,-0.10136238485574722,-1.1215031147003174,-0.2180906981229782
1772456316802856200,0.823856201171875,-0.057413578033447266,-1.1445245742797852,-0.2541336417198181
1772456316812874000,0.8338740234375,0.04421452805399895,-1.0115519762039185,-0.07729176431894302
1772456316822893000,0.84389306640625,0.1533292979001999,-0.7933176159858704,0.39153537154197693
1772456316832911400,0.853911376953125,0.2598130702972412,-0.4436955749988556,1.0004128217697144
1772456316842930200,0.86393017578125,0.3398013710975647,0.11483267694711685,1.5694153308868408
1772456316852948200,0.8739482421875,0.3893030881881714,0.7567400932312012,2.0114059448242188
1772456316862967300,0.88396728515625,0.43169450759887695,1.4324408769607544,2.2422549724578857
1772456316872985000,0.893985107421875,0.38186439871788025,2.02620530128479,2.2171292304992676
1772456316883004200,0.904004150390625,0.23366984724998474,2.3906476497650146,1.9605721235275269
1772456316893022200,0.914022216796875,0.024297043681144714,2.262219190597534,1.5317655801773071
1772456316903041000,0.924041015625,-0.15647007524967194,1.4604519605636597,0.9333444237709045
1772456316913059300,0.934059326171875,-0.30340179800987244,0.4820023477077484,0.28150224685668945
1772456316923078400,0.944078369140625,-0.3633418083190918,-0.246108278632164,-0.20089611411094666
1772456316933097200,0.95409716796875,-0.3653995394706726,-0.6293242573738098,-0.3359403908252716
1772456316943115300,0.964115234375,-0.35748863220214844,-0.733160674571991,-0.09807004034519196
1772456316953134300,0.97413427734375,-0.34889212250709534,-0.5682874917984009,0.27815985679626465
1772456316963152100,0.984152099609375,-0.28266170620918274,-0.5074544548988342,0.5166726112365723
1772456316973171200,0.994171142578125,-0.19390790164470673,-0.3009529113769531,0.4604736268520355
1772456316983189000,1.00418896484375,-0.10876797139644623,0.1848553568124771,0.21880322694778442
1772456316993208000,1.0142080078125,0.05712226405739784,0.4405668377876282,-0.08960353583097458
1772456317003226400,1.024226318359375,0.291145920753479,0.4570786952972412,-0.4570867419242859
1772456317013245200,1.0342451171875,0.5431534647941589,0.45391565561294556,-0.7070773839950562
1772456317023263200,1.04426318359375,0.7304857969284058,0.5058432817459106,-0.7955353856086731
1772456317033282300,1.0542822265625,0.8471073508262634,0.565437912940979,-0.6933947801589966
1772456317043300000,1.064300048828125,0.8302364945411682,0.5706848502159119,-0.4213806092739105
1772456317053319200,1.074319091796875,0.7417583465576172,0.6337031722068787,-0.08593590557575226
1772456317063337000,1.0843369140625,0.6780781745910645,0.6907457113265991,0.1864149272441864
1772456317073355300,1.094355224609375,0.6378260850906372,0.5860794186592102,0.27675583958625793
1772456317083374300,1.104374267578125,0.5237818360328674,0.28524819016456604,0.20371732115745544
1772456317093392100,1.11439208984375,0.3064071834087372,-0.15620222687721252,0.08927129954099655
1772456317103411200,1.1244111328125,0.06660923361778259,-0.7478461265563965,0.04625965654850006
1772456317113429200,1.13442919921875,-0.11740182340145111,-1.3083548545837402,0.0014355214079841971
1772456317123448000,1.144447998046875,-0.15736894309520721,-1.8035707473754883,-0.16811062395572662
1772456317133466400,1.15446630859375,-0.09397713840007782,-2.1379921436309814,-0.33632373809814453
1772456317143485200,1.164485107421875,0.03346044942736626,-2.305978536605835,-0.5482514500617981
1772456317153503200,1.174503173828125,0.1456872522830963,-2.233919858932495,-0.6402537822723389
1772456317163522300,1.184522216796875,0.20381474494934082,-1.9201260805130005,-0.5601855516433716
1772456317173540000,1.1945400390625,0.2395142912864685,-1.446797490119934,-0.39833223819732666
1772456317183559200,1.20455908203125,0.2757450044155121,-1.0139331817626953,-0.22156386077404022
1772456317193577200,1.2145771484375,0.306939959526062,-0.6682770252227783,-0.04429788514971733
1772456317203595300,1.22459521484375,0.3130388557910919,-0.3430754840373993,0.13963386416435242
1772456317213614300,1.2346142578125,0.31900912523269653,-0.04441426321864128,0.34697118401527405
1772456317223632100,1.244632080078125,0.34388333559036255,0.30924341082572937,0.5432906150817871
1772456317233651200,1.254651123046875,0.38746127486228943,0.6283152103424072,0.7723420262336731
1772456317243669200,1.264669189453125,0.5245823860168457,0.8590053915977478,0.9795234799385071
1772456317253688000,1.27468798828125,0.671512246131897,0.9427729249000549,1.1149075031280518
1772456317263706000,1.2847060546875,0.7270830869674683,0.9797330498695374,1.1382898092269897
1772456317273725200,1.29472509765625,0.5941148996353149,0.9175466299057007,1.0314582586288452
1772456317283743200,1.3047431640625,0.293148398399353,0.781308114528656,0.8578885793685913
1772456317293762300,1.31476220703125,-0.0894262045621872,0.38905420899391174,0.625707745552063
1772456317303780000,1.324780029296875,-0.46062958240509033,0.06281033903360367,0.2926133871078491
1772456317313799200,1.334799072265625,-0.8701397776603699,0.149296373128891,-0.0443473644554615
1772456317323817200,1.344817138671875,-1.1900590658187866,0.4094690978527069,-0.251118928194046
1772456317333835000,1.3548349609375,-1.4247196912765503,0.5356760621070862,-0.19961924850940704
1772456317343854000,1.36485400390625,-1.5605438947677612,0.37934181094169617,0.041917480528354645
1772456317353872400,1.374872314453125,-1.4891589879989624,0.0681409016251564,0.29675865173339844
1772456317363891200,1.38489111328125,-1.3346383571624756,-0.12761901319026947,0.4371964633464813
1772456317373909200,1.3949091796875,-1.1484806537628174,-0.08577578514814377,0.3814758360385895
1772456317383928300,1.40492822265625,-0.77068030834198,-0.10966141521930695,-0.007860193960368633
1772456317393946000,1.414946044921875,-0.2543478012084961,-0.2707905173301697,-0.5398697853088379
1772456317403965200,1.424965087890625,0.1911228895187378,-0.5279157757759094,-1.0534909963607788
1772456317413983200,1.434983154296875,0.4840456247329712,-0.9605823159217834,-1.3310388326644897
1772456317424002000,1.445001953125,0.7297632098197937,-1.468106985092163,-1.304890513420105
1772456317434020400,1.455020263671875,0.9299993515014648,-1.1782058477401733,-1.2048214673995972
1772456317444039200,1.4650390625,1.1321583986282349,-0.42978978157043457,-0.907322347164154
1772456317454057200,1.47505712890625,1.105249285697937,0.648643970489502,-0.6134198307991028
1772456317464075000,1.485074951171875,0.9046483039855957,1.7328733205795288,-0.36223095655441284
1772456317474094000,1.495093994140625,0.5589598417282104,2.180569648742676,-0.004609263967722654
1772456317484112400,1.5051123046875,0.12837329506874084,2.1192617416381836,0.3899942636489868
1772456317494131200,1.515131103515625,-0.27023276686668396,1.7276309728622437,0.6227341890335083
1772456317504149200,1.525149169921875,-0.5758763551712036,1.012093424797058,0.6901273131370544
1772456317514168300,1.535168212890625,-0.7111003398895264,0.1425611823797226,0.5794652104377747
1772456317524186000,1.54518603515625,-0.7485970854759216,-0.706908106803894,0.3692789375782013
1772456317534205200,1.555205078125,-0.5862827897071838,-1.4897372722625732,0.18298885226249695
1772456317544223200,1.56522314453125,-0.21917083859443665,-1.8910343647003174,-0.17153966426849365
1772456317554242000,1.575241943359375,0.12421721965074539,-1.6978352069854736,-0.5503786206245422
1772456317564260400,1.58526025390625,0.36002469062805176,-1.356705904006958,-0.8478484153747559
1772456317574279400,1.595279541015625,0.4575938880443573,-0.701131284236908,-1.082956314086914
1772456317584297200,1.605297119140625,0.46777966618537903,0.10207249969244003,-1.0595476627349854
1772456317594315300,1.615315185546875,0.46631890535354614,0.6465770602226257,-0.7254608273506165
1772456317604334000,1.625333984375,0.3732755184173584,0.5600792169570923,-0.19790968298912048
1772456317614352100,1.63535205078125,0.2298893928527832,0.0069376081228256226,0.38811010122299194
1772456317624371200,1.64537109375,0.3185005187988281,-0.6066176891326904,1.0283784866333008
1772456317634389200,1.65538916015625,0.40152841806411743,-0.7161263823509216,1.5218013525009155
1772456317644408300,1.665408203125,0.3890856206417084,-0.32342037558555603,1.7226194143295288
1772456317654426000,1.675426025390625,0.3132198452949524,0.17811258137226105,1.7508200407028198
1772456317664445200,1.685445068359375,0.24024206399917603,0.8060473203659058,1.665182113647461
1772456317674463200,1.695463134765625,0.07627426087856293,1.321716070175171,1.49894380569458
1772456317684482000,1.70548193359375,-0.14286421239376068,1.5717577934265137,1.295026421546936
1772456317694500000,1.7155,-0.3508268892765045,1.375625729560852,0.9450597167015076
1772456317704518100,1.72551806640625,-0.574674129486084,0.776573657989502,0.5416800379753113
1772456317714537200,1.735537109375,-0.6983920931816101,0.13259468972682953,0.23466044664382935
1772456317724555300,1.74555517578125,-0.7356595396995544,-0.21160610020160675,0.09379146993160248
1772456317734574000,1.755573974609375,-0.7955813407897949,-0.46471843123435974,0.0008581783622503281
1772456317744592100,1.765592041015625,-0.8391666412353516,-0.5610846281051636,-0.1932726800441742
1772456317754611200,1.775611083984375,-0.8464446067810059,-0.3892028331756592,-0.4208492338657379
1772456317764629200,1.785629150390625,-0.7852782011032104,0.088528573513031,-0.6150781512260437
1772456317774648000,1.79564794921875,-0.6206206679344177,0.4446950852870941,-0.6996734142303467
1772456317784666400,1.805666259765625,-0.3550686538219452,0.3828524947166443,-0.7105156779289246
1772456317794685200,1.815685302734375,-0.022197455167770386,0.08049177378416061,-0.7484267354011536
1772456317804703200,1.825703125,0.27039578557014465,-0.19640985131263733,-0.7759488821029663
1772456317814722300,1.835722412109375,0.4974963366985321,-0.3867896795272827,-0.7095232605934143
1772456317824740000,1.845739990234375,0.6345633864402771,-0.4984927773475647,-0.5304371118545532
1772456317834758400,1.85575830078125,0.6995713114738464,-0.5257210731506348,-0.35086578130722046
1772456317844777200,1.865777099609375,0.6629374027252197,-0.4452669620513916,-0.2993360161781311
1772456317854795300,1.875795166015625,0.5396000146865845,-0.27844512462615967,-0.40224316716194153
1772456317864814300,1.885814453125,0.3370732367038727,-0.059820618480443954,-0.5557754635810852
1772456317874832100,1.89583203125,0.10937689244747162,0.22818811237812042,-0.6463320255279541
1772456317884851200,1.905851318359375,-0.10360408574342728,0.4013391137123108,-0.5909332036972046
1772456317894869000,1.915868896484375,-0.275981605052948,0.38323476910591125,-0.42426472902297974
1772456317904888000,1.92588818359375,-0.3809570372104645,0.20730583369731903,-0.24716505408287048
1772456317914906400,1.93590625,-0.42150044441223145,-0.015908408910036087,-0.10885767638683319
1772456317924925200,1.94592529296875,-0.3999621272087097,-0.27808278799057007,-0.01173325628042221
1772456317934942500,1.9559423828125,-0.32191774249076843,-0.5505146384239197,0.012323250994086266
1772456317944961500,1.96596142578125,-0.17994730174541473,-0.8441126942634583,-0.04697522521018982
1772456317954979600,1.9759794921875,-0.031419478356838226,-0.9559816718101501,-0.1803423911333084
1772456317964997600,1.98599755859375,0.03673374280333519,-0.8348283767700195,-0.34332332015037537
1772456317975016700,1.9960166015625,0.07007698714733124,-0.5757365226745605,-0.4512540102005005
1772456317985034500,2.006034423828125,0.08049021661281586,-0.19171267747879028,-0.428012877702713
1772456317995053600,2.016053466796875,0.09699314832687378,0.23257313668727875,-0.23174622654914856
1772456318005071600,2.026071533203125,0.11691679060459137,0.5962842106819153,0.0813208818435669
1772456318015090400,2.03609033203125,0.12803421914577484,0.5295165181159973,0.46066814661026
1772456318025108500,2.0461083984375,0.14180488884449005,0.220968559384346,0.8641155362129211
1772456318035127600,2.05612744140625,0.21032753586769104,-0.06401536613702774,1.1771169900894165
1772456318045145600,2.0661455078125,0.3183775842189789,-0.2628094255924225,1.3042556047439575
1772456318055164700,2.07616455078125,0.3529191017150879,-0.3324674665927887,1.3117784261703491
1772456318065182500,2.086182373046875,0.3101615309715271,-0.244882732629776,1.1818920373916626
1772456318075200500,2.096200439453125,0.14427897334098816,0.06475657969713211,0.967836856842041
1772456318085219600,2.106219482421875,-0.13118989765644073,0.5038796067237854,0.7088159322738647
1772456318095237400,2.1162373046875,-0.455332487821579,1.013991117477417,0.438719779253006
1772456318105256400,2.12625634765625,-0.7262499928474426,1.3938753604888916,0.2453700453042984
1772456318115274800,2.136274658203125,-0.8702422976493835,1.784877896308899,0.15095831453800201
1772456318125293600,2.14629345703125,-0.8344134092330933,1.912166714668274,0.18900156021118164
1772456318135311600,2.1563115234375,-0.7719532251358032,1.552327036857605,0.3247807025909424
1772456318145330700,2.16633056640625,-0.6657456159591675,0.929278552532196,0.26290056109428406
1772456318155348500,2.176348388671875,-0.3367956280708313,0.37826359272003174,-0.03690453618764877
1772456318165367600,2.186367431640625,0.09732437878847122,-0.1139998808503151,-0.17606136202812195
1772456318175385600,2.196385498046875,0.39456701278686523,-0.3035094141960144,-0.28088006377220154
1772456318185404400,2.206404296875,0.5407372713088989,-0.40916314721107483,-0.35899749398231506
1772456318195422700,2.216422607421875,0.623468816280365,-0.4027717113494873,-0.3542642295360565
1772456318205440500,2.2264404296875,0.6427642703056335,-0.4222809672355652,-0.27706852555274963
1772456318215459600,2.23645947265625,0.5744137167930603,-0.5515622496604919,-0.19940248131752014
1772456318225477400,2.246477294921875,0.450224906206131,-0.7779392004013062,-0.08617046475410461
1772456318235496400,2.256496337890625,0.24151550233364105,-0.824706494808197,-0.19467158615589142
1772456318245514800,2.2665146484375,-0.005109989549964666,-0.8800157904624939,-0.5408859848976135
1772456318255533600,2.276533447265625,-0.18505404889583588,-0.8694329857826233,-0.7718914747238159
1772456318265551600,2.286551513671875,-0.23658540844917297,-0.8465795516967773,-0.6255297660827637
1772456318275570700,2.29657080078125,-0.24181772768497467,-0.6253739595413208,-0.2631097137928009
1772456318285588500,2.30658837890625,-0.1656796783208847,-0.321215957403183,0.1463761329650879
1772456318295607600,2.316607666015625,-0.09308432042598724,-0.02021743357181549,0.39034366607666016
1772456318305625600,2.32662548828125,-0.05026201903820038,0.15237218141555786,0.40172868967056274
1772456318315643600,2.3366435546875,-0.02178485319018364,0.1833774894475937,0.2220286875963211
1772456318325662700,2.346662841796875,-0.010298105888068676,0.030838826671242714,-0.029187824577093124
1772456318335680500,2.356680419921875,0.0000358817633241415,-0.29245665669441223,-0.26292791962623596
1772456318345699600,2.366699462890625,0.03266732767224312,-0.7160686254501343,-0.4328937828540802
1772456318355717600,2.376717529296875,0.07529108226299286,-1.185766339302063,-0.516835629940033
1772456318365736400,2.386736328125,0.0961952954530716,-1.5478273630142212,-0.5820726752281189
1772456318375754500,2.39675439453125,0.1256645917892456,-1.6539208889007568,-0.6231957674026489
1772456318385773600,2.406773681640625,0.15413804352283478,-1.5516749620437622,-0.6075571775436401
1772456318395791600,2.41679150390625,0.202970951795578,-1.3918293714523315,-0.46747151017189026
1772456318405810700,2.426810791015625,0.2287767231464386,-1.1413885354995728,-0.19127613306045532
1772456318415828500,2.436828369140625,0.2484520971775055,-0.7851206660270691,0.15742622315883636
1772456318425846500,2.446846435546875,0.282258003950119,-0.38919705152511597,0.551837146282196
1772456318435865600,2.456865478515625,0.30801352858543396,-0.040016114711761475,0.963015079498291
1772456318445883400,2.46688330078125,0.27461084723472595,0.23743626475334167,1.2654361724853516
1772456318455902500,2.47690234375,0.10924769192934036,0.6307039856910706,1.4141861200332642
1772456318465920500,2.48692041015625,-0.1300724744796753,1.0495659112930298,1.338104248046875
1772456318475939600,2.496939697265625,-0.38765189051628113,1.1852747201919556,1.023256540298462
1772456318485957600,2.50695751953125,-0.6073629856109619,1.0934302806854248,0.5338374972343445
1772456318495976400,2.5169765625,-0.7901379466056824,0.9992709755897522,-0.025697633624076843
1772456318505994500,2.526994384765625,-0.9030645489692688,0.8416900634765625,-0.5372317433357239
1772456318516013600,2.537013671875,-0.9650255441665649,0.5535271167755127,-0.9548255801200867
1772456318526031600,2.547031494140625,-0.9517779350280762,0.3660571277141571,-1.216781497001648
1772456318536050400,2.557050537109375,-0.8338284492492676,0.4223455488681793,-1.2994675636291504
1772456318546068700,2.56706884765625,-0.6592124700546265,0.6275261044502258,-1.1670703887939453
1772456318556086500,2.57708642578125,-0.425331711769104,0.7619621753692627,-0.8633708953857422
1772456318566105600,2.587105712890625,-0.09624543786048889,0.6593945026397705,-0.4940117299556732
1772456318576123400,2.597123291015625,0.32612717151641846,0.4151950478553772,-0.13229748606681824
1772456318586142500,2.607142578125,0.6816685199737549,0.2579859793186188,0.12756206095218658
1772456318596160800,2.617160888671875,0.8704036474227905,0.16708482801914215,0.17741622030735016
1772456318606179600,2.6271796875,0.8695011138916016,0.02821614407002926,-0.05063957720994949
1772456318616197600,2.63719775390625,0.7922659516334534,-0.11756443232297897,-0.46619004011154175
1772456318626216700,2.647216796875,0.6737819314002991,-0.12121855467557907,-0.8676818013191223
1772456318636234500,2.657234375,0.4847475290298462,-0.011696796864271164,-1.1538760662078857
1772456318646253600,2.667253662109375,0.23280876874923706,0.12070491909980774,-1.258232831954956
1772456318656271400,2.677271240234375,0.00507403165102005,0.10509849339723587,-1.150630235671997
1772456318666290400,2.68729052734375,-0.14517299830913544,-0.02973255142569542,-0.8696445822715759
1772456318676308700,2.697308837890625,-0.28141024708747864,-0.2820938527584076,-0.4672175347805023
1772456318686326500,2.707326416015625,-0.37360861897468567,-0.6536756753921509,-0.09614996612071991
1772456318696345600,2.717345703125,-0.3848271071910858,-0.9316697120666504,0.12080439180135727
1772456318706363600,2.72736376953125,-0.34297341108322144,-1.0106004476547241,0.16254331171512604
1772456318716382500,2.737382568359375,-0.2269974797964096,-0.9426521062850952,0.09341496229171753
1772456318726400500,2.747400390625,-0.06616918742656708,-0.7324693202972412,-0.02578759379684925
1772456318736419600,2.757419677734375,0.08004189282655716,-0.4144515097141266,-0.18139983713626862
1772456318746437600,2.767437744140625,0.20748800039291382,-0.08774448931217194,-0.3169691264629364
1772456318756456700,2.777456787109375,0.26635950803756714,0.1525081843137741,-0.3800995945930481
1772456318766474500,2.787474609375,0.3044546842575073,0.19132108986377716,-0.3534240424633026
1772456318776493600,2.79749365234375,0.32367751002311707,0.029563380405306816,-0.2554296553134918
1772456318786511600,2.80751171875,0.30585458874702454,-0.2461417019367218,-0.1439334601163864
1772456318796529400,2.817529296875,0.2723076045513153,-0.519506573677063,-0.013248339295387268
1772456318806548500,2.827548583984375,0.2496425062417984,-0.7862684726715088,0.15767094492912292
1772456318816566500,2.83756640625,0.27931126952171326,-1.013292670249939,0.3737313151359558
1772456318826585600,2.847585693359375,0.332900732755661,-0.9427375793457031,0.6853190660476685
1772456318836603600,2.857603759765625,0.35020726919174194,-0.609432578086853,1.0217558145523071
1772456318846622500,2.86762255859375,0.29326727986335754,-0.12935732305049896,1.235298752784729
1772456318856640500,2.877640625,0.0834493413567543,0.5874180793762207,1.3213657140731812
1772456318866659600,2.88765966796875,-0.23595687747001648,1.125211238861084,1.2319929599761963
1772456318876677600,2.897677734375,-0.5845852494239807,1.3662314414978027,0.9244180917739868
1772456318886696700,2.90769677734375,-0.9177674651145935,1.4864561557769775,0.5377667546272278
1772456318896714500,2.917714599609375,-1.0856527090072632,1.59650719165802,0.2440619319677353
1772456318906733600,2.927733642578125,-1.0832574367523193,1.4327605962753296,0.13414235413074493
1772456318916751600,2.937751708984375,-0.9882848262786865,0.895372748374939,0.10527876764535904
1772456318926769400,2.947769287109375,-0.8536628484725952,0.30422741174697876,0.015132363885641098
1772456318936789000,2.9577890625,-0.7147635221481323,0.014414401724934578,-0.14192412793636322
1772456318946807000,2.96780712890625,-0.5454809665679932,-0.031572531908750534,-0.283812552690506
1772456318956825900,2.977825927734375,-0.33135730028152466,-0.00296926312148571,-0.36743417382240295
1772456318966844200,2.98784423828125,-0.09509948641061783,0.027813948690891266,-0.37804046273231506
1772456318976863200,2.99786328125,0.16980037093162537,0.0662887841463089,-0.3015872836112976
1772456318986881000,3.007881103515625,0.42108455300331116,0.0996752381324768,-0.1670028567314148
1772456318996900000,3.017900146484375,0.6324478387832642,0.04701545834541321,-0.0427711196243763
1772456319006918000,3.02791796875,0.7591831088066101,-0.07336688041687012,0.006616666913032532
1772456319016937000,3.03793701171875,0.7646915316581726,-0.18811959028244019,-0.05821765959262848
1772456319026955000,3.047955078125,0.6597621440887451,-0.2675723433494568,-0.220747709274292
1772456319036973000,3.05797314453125,0.4650867283344269,-0.2880820035934448,-0.3942694664001465
1772456319046992100,3.0679921875,0.25895804166793823,-0.3530751168727875,-0.5237911939620972
1772456319057010200,3.07801025390625,0.08159063011407852,-0.47002658247947693,-0.5749672055244446
1772456319067029000,3.088029052734375,-0.08237326890230179,-0.5247034430503845,-0.548034131526947
1772456319077047000,3.098047119140625,-0.19164825975894928,-0.5706564784049988,-0.4111442267894745
1772456319087066000,3.108066162109375,-0.25465065240859985,-0.5561068654060364,-0.19606226682662964
1772456319097084200,3.118084228515625,-0.2861364781856537,-0.4158758521080017,0.031043078750371933
1772456319107103200,3.128103271484375,-0.2733820676803589,-0.17108234763145447,0.2202790379524231
1772456319117121000,3.13812109375,-0.2410460114479065,0.013564854860305786,0.328419953584671
1772456319127140000,3.14814013671875,-0.18526051938533783,-0.012644113041460514,0.30968326330184937
1772456319137158100,3.158158203125,-0.0856432244181633,-0.21864578127861023,0.1535046398639679
1772456319147177000,3.168177001953125,0.02507822774350643,-0.41136011481285095,-0.09963228553533554
1772456319157195000,3.178195068359375,0.10211361944675446,-0.5083276629447937,-0.31705862283706665
1772456319167213000,3.188213134765625,0.14186076819896698,-0.5525976419448853,-0.42535844445228577
1772456319177232100,3.198232177734375,0.18216580152511597,-0.49250492453575134,-0.37387099862098694
1772456319187250200,3.208250244140625,0.21185685694217682,-0.3295631408691406,-0.1804477423429489
1772456319197269000,3.21826904296875,0.21698231995105743,-0.018221629783511162,0.1457490473985672
1772456319207287000,3.228287109375,0.18942898511886597,0.25617077946662903,0.5534350872039795
1772456319217306000,3.23830615234375,0.15324194729328156,0.4323441982269287,0.921313464641571
1772456319227324000,3.248323974609375,0.032793574035167694,0.4572460949420929,1.2014354467391968
1772456319237343000,3.258343017578125,-0.1295665055513382,0.43816569447517395,1.3661059141159058
1772456319247361300,3.268361328125,-0.3001353144645691,0.5299084186553955,1.4231237173080444
1772456319257380000,3.278380126953125,-0.4543367922306061,0.5038561820983887,1.3290208578109741
1772456319267398100,3.288398193359375,-0.5877106189727783,0.3189997673034668,0.9218786954879761
1772456319277416000,3.298416015625,-0.7405446171760559,0.3084431290626526,0.34802207350730896
1772456319287435000,3.30843505859375,-0.858280599117279,0.2973792850971222,-0.17325229942798615
1772456319297453000,3.318453125,-0.886137843132019,0.11820299923419952,-0.5582894086837769
1772456319307472000,3.328471923828125,-0.7990508675575256,-0.0992097482085228,-0.7901671528816223
1772456319317490200,3.338490234375,-0.6458719372749329,-0.20907172560691833,-0.8727287650108337
1772456319327509200,3.34850927734375,-0.46536657214164734,-0.1422218531370163,-0.8007743954658508
1772456319337527000,3.358527099609375,-0.24926257133483887,0.03971931338310242,-0.5974023342132568
1772456319347546000,3.368546142578125,0.03199440985918045,0.17047573626041412,-0.3385513424873352
1772456319357564000,3.37856396484375,0.34019917249679565,0.12774626910686493,-0.1312655657529831
1772456319367583000,3.3885830078125,0.5821793079376221,0.01922430843114853,0.008639603853225708
1772456319377601000,3.39860107421875,0.6925392746925354,-0.10636986792087555,0.066619873046875
1772456319387620000,3.4086201171875,0.6873309016227722,-0.19245760142803192,0.004166081082075834
1772456319397638100,3.41863818359375,0.6197428703308105,-0.20150044560432434,-0.191425159573555
1772456319407656000,3.428656005859375,0.5285080075263977,-0.22735600173473358,-0.4836210310459137
1772456319417675000,3.438675048828125,0.4300602972507477,-0.2584596574306488,-0.7173638939857483
1772456319427693000,3.448693115234375,0.3168003261089325,-0.28702205419540405,-0.7674188017845154
1772456319437712000,3.4587119140625,0.19564762711524963,-0.32173845171928406,-0.6325840950012207
1772456319447730200,3.468730224609375,0.08679226040840149,-0.39650166034698486,-0.3917054533958435
1772456319457749200,3.478749267578125,-0.0053352308459579945,-0.4529689848423004,-0.14407208561897278
1772456319467767000,3.48876708984375,-0.0935247465968132,-0.41961023211479187,0.050982359796762466
1772456319477786000,3.4987861328125,-0.16477707028388977,-0.28629350662231445,0.17921605706214905
1772456319487804200,3.50880419921875,-0.21703867614269257,-0.15181824564933777,0.21539723873138428
1772456319497823000,3.518822998046875,-0.2666895091533661,-0.009372596628963947,0.19343875348567963
1772456319507841000,3.528841064453125,-0.2828559875488281,0.09362035989761353,0.17672687768936157
1772456319517859000,3.538859130859375,-0.26692473888397217,0.1445273905992508,0.14308123290538788
1772456319527878100,3.548878173828125,-0.22738240659236908,0.16728836297988892,0.07158202677965164
1772456319537896200,3.558896240234375,-0.15279729664325714,0.10096967965364456,-0.04075200855731964
1772456319547915000,3.5689150390625,-0.06044820323586464,-0.059723593294620514,-0.16188588738441467
1772456319557933000,3.57893310546875,0.016916142776608467,-0.30066657066345215,-0.2399546205997467
1772456319567952100,3.5889521484375,0.08398173004388809,-0.6079335808753967,-0.2272697240114212
1772456319577970000,3.598969970703125,0.13037684559822083,-0.9217360615730286,-0.08742853999137878
1772456319587989000,3.608989013671875,0.14467883110046387,-1.1121370792388916,0.12455881386995316
1772456319598007000,3.619007080078125,0.12926910817623138,-1.2166835069656372,0.30624228715896606
1772456319608026000,3.629026123046875,0.0909227803349495,-1.1699113845825195,0.4380146861076355
1772456319618044200,3.639044189453125,-0.020106155425310135,-0.7410783171653748,0.5695939660072327
1772456319628063000,3.64906298828125,-0.1409635990858078,-0.06114373728632927,0.7043099403381348
1772456319638081000,3.6590810546875,-0.27741917967796326,0.6114341020584106,0.7915918827056885
1772456319648099000,3.66909912109375,-0.4189334511756897,1.1495449542999268,0.7028774619102478
1772456319658118000,3.679117919921875,-0.5718399882316589,1.585721492767334,0.41031551361083984
1772456319668136200,3.68913623046875,-0.6677899956703186,1.8382046222686768,0.09044191241264343
1772456319678155300,3.6991552734375,-0.6432338356971741,1.8265202045440674,-0.13035061955451965
1772456319688173000,3.709173095703125,-0.4810335338115692,1.4518903493881226,-0.3050372004508972
1772456319698192100,3.719192138671875,-0.25979796051979065,0.9674409627914429,-0.48852863907814026
1772456319708210000,3.7292099609375,-0.07231701910495758,0.6644307374954224,-0.6453954577445984
1772456319718229000,3.73922900390625,0.10337675362825394,0.4864991307258606,-0.7106358408927917
1772456319728247000,3.7492470703125,0.2811262309551239,0.3231613337993622,-0.7265181541442871
1772456319738266000,3.75926611328125,0.40029028058052063,0.09939651936292648,-0.6594274044036865
1772456319748284200,3.7692841796875,0.45856955647468567,-0.11098255217075348,-0.5117543339729309
1772456319758302000,3.779302001953125,0.43943148851394653,-0.2968260645866394,-0.3900710344314575
1772456319768321000,3.789321044921875,0.34538593888282776,-0.4690156877040863,-0.372740775346756
1772456319778339000,3.799339111328125,0.22515085339546204,-0.4799253046512604,-0.429107666015625
1772456319788358000,3.80935791015625,0.11836635321378708,-0.43617889285087585,-0.5404477715492249
1772456319798376200,3.819376220703125,0.013985581696033478,-0.45339345932006836,-0.6544792056083679
1772456319808395300,3.829395263671875,-0.122046560049057,-0.5040153861045837,-0.7000096440315247
1772456319818413000,3.8394130859375,-0.28993096947669983,-0.578217625617981,-0.6101928353309631
1772456319828432100,3.84943212890625,-0.40244629979133606,-0.687154233455658,-0.371928870677948
1772456319838450000,3.859449951171875,-0.45268434286117554,-0.7826356291770935,-0.06662052869796753
1772456319848469000,3.869468994140625,-0.42574939131736755,-0.7160273194313049,0.12977401912212372
1772456319858487000,3.879487060546875,-0.31847432255744934,-0.5403106212615967,0.17237819731235504
1772456319868505000,3.889505126953125,-0.16941508650779724,-0.31771376729011536,0.0947670191526413
1772456319878524200,3.899524169921875,-0.03220774605870247,-0.14672885835170746,-0.05182291567325592
1772456319888542200,3.909542236328125,0.10496262460947037,-0.07697108387947083,-0.15739275515079498
1772456319898561000,3.91956103515625,0.21768881380558014,-0.026456331834197044,-0.16685904562473297
1772456319908579000,3.9295791015625,0.28474774956703186,-0.01717201992869377,-0.10717334598302841
1772456319918598100,3.93959814453125,0.2963613271713257,-0.08324655145406723,-0.07933524250984192
1772456319928616000,3.949615966796875,0.2703630030155182,-0.11951906979084015,-0.09463723748922348
1772456319938634800,3.959634765625,0.21407100558280945,-0.11763808131217957,-0.10145304352045059
1772456319948652800,3.96965283203125,0.16234628856182098,-0.21025030314922333,-0.07110179215669632
1772456319958672000,3.979671875,0.13331612944602966,-0.3408917784690857,0.0018713818863034248
1772456319968689700,3.989689697265625,0.12201182544231415,-0.4656720459461212,0.11646880209445953
1772456319978708700,3.999708740234375,0.1139095276594162,-0.5033764839172363,0.3028334379196167
1772456319988726500,4.0097265625,0.040409743785858154,-0.5023314356803894,0.5276923775672913
1772456319998744800,4.019744873046875,-0.0676233321428299,-0.5049340128898621,0.7083058953285217
1772456320008764000,4.029763916015625,-0.1797778308391571,-0.3543809950351715,0.7549612522125244
1772456320018781700,4.03978173828125,-0.3415384590625763,-0.07669751346111298,0.6439751982688904
1772456320028800800,4.04980078125,-0.5221596360206604,0.27554333209991455,0.3683529496192932
1772456320038818600,4.059818603515625,-0.7161178588867188,0.7585812211036682,0.053122639656066895
1772456320048837600,4.069837646484375,-0.8115975260734558,1.1040468215942383,-0.11288577318191528
1772456320058855700,4.079855712890625,-0.8369699120521545,1.0673168897628784,-0.1137329563498497
1772456320068874500,4.08987451171875,-0.8104909062385559,0.6433615684509277,-0.09091285616159439
1772456320078892800,4.099892822265625,-0.7511213421821594,0.14146846532821655,-0.1410369724035263
1772456320088912000,4.109911865234375,-0.6231743097305298,-0.14018824696540833,-0.28034693002700806
1772456320098929700,4.1199296875,-0.3755573630332947,-0.154366597533226,-0.3642036020755768
1772456320108947700,4.12994775390625,-0.043838806450366974,-0.016435891389846802,-0.30095192790031433
1772456320118966500,4.139966552734375,0.2924574017524719,0.0905122458934784,-0.14302857220172882
1772456320128984600,4.149984619140625,0.5694932341575623,0.17880669236183167,0.03638698533177376
1772456320139003600,4.160003662109375,0.7642083764076233,0.2794869542121887,0.1894441843032837
1772456320149021700,4.170021728515625,0.8717529773712158,0.33528390526771545,0.24370422959327698
1772456320159040800,4.180040771484375,0.8600565791130066,0.23722483217716217,0.16091082990169525
1772456320169058800,4.190058837890625,0.7212163805961609,-0.020685261115431786,-0.05564837157726288
1772456320179077600,4.20007763671875,0.49331122636795044,-0.37079671025276184,-0.30258801579475403
1772456320189095700,4.210095703125,0.24808843433856964,-0.6693394780158997,-0.457404226064682
1772456320199114800,4.22011474609375,0.018635746091604233,-0.8346742987632751,-0.47150424122810364
1772456320209132500,4.230132568359375,-0.15027497708797455,-0.8958865404129028,-0.3991125822067261
1772456320219150800,4.24015087890625,-0.2804029583930969,-0.817541778087616,-0.22828596830368042
1772456320229169700,4.250169677734375,-0.37188920378685,-0.5901778936386108,-0.015865840017795563
1772456320239187700,4.260187744140625,-0.4133633077144623,-0.30830156803131104,0.14403271675109863
1772456320249206800,4.270206787109375,-0.3482825756072998,-0.10459211468696594,0.24227167665958405
1772456320259224600,4.280224609375,-0.19903965294361115,0.014592449180781841,0.29444196820259094
1772456320269243600,4.29024365234375,-0.015599518083035946,0.024745218455791473,0.2904419004917145
1772456320279261700,4.30026171875,0.1530592143535614,0.02237645536661148,0.23654912412166595
1772456320289280800,4.31028076171875,0.2701892852783203,-0.037045061588287354,0.1353633850812912
1772456320299298800,4.320298828125,0.3225060999393463,-0.09422111511230469,0.048376280814409256
1772456320309317600,4.330317626953125,0.33329299092292786,-0.18578405678272247,0.02757379785180092
1772456320319335700,4.340335693359375,0.32372012734413147,-0.2849458158016205,0.08227623254060745
1772456320329354800,4.350354736328125,0.3060934543609619,-0.3371690809726715,0.16381797194480896
1772456320339372500,4.36037255859375,0.2773553133010864,-0.2567078769207001,0.25237032771110535
1772456320349390800,4.370390869140625,0.2368270754814148,-0.05312436819076538,0.40365147590637207
1772456320359410000,4.380409912109375,0.20938992500305176,0.12898772954940796,0.6275954246520996
1772456320369427700,4.390427734375,0.19583922624588013,0.2970294654369354,0.8560134172439575
1772456320379446800,4.40044677734375,0.16278302669525146,0.43866249918937683,0.9941949844360352
1772456320389464600,4.410464599609375,0.07641030848026276,0.4284476637840271,0.9603107571601868
1772456320399483600,4.420483642578125,-0.06540252268314362,0.3620074689388275,0.7583911418914795
1772456320409501700,4.430501708984375,-0.2533620595932007,0.32756373286247253,0.4405958652496338
1772456320419520500,4.4405205078125,-0.4013420641422272,0.26919397711753845,0.07166478037834167
1772456320429538800,4.450538818359375,-0.4937015771865845,0.12489407509565353,-0.2606087625026703
1772456320439558000,4.460557861328125,-0.5362630486488342,-0.1866578608751297,-0.5245683789253235
1772456320449575700,4.47057568359375,-0.5179836750030518,-0.47680848836898804,-0.6543418169021606
1772456320459593700,4.48059375,-0.4132674038410187,-0.5789662599563599,-0.5932049751281738
1772456320469612500,4.490612548828125,-0.20985326170921326,-0.4397258162498474,-0.3945885896682739
1772456320479630600,4.500630615234375,0.025851517915725708,-0.10500504821538925,-0.23325222730636597
1772456320489649700,4.510649658203125,0.24219579994678497,0.1808842122554779,-0.24263107776641846
1772456320499667700,4.520667724609375,0.39612245559692383,0.44801434874534607,-0.24655187129974365
1772456320509686800,4.530686767578125,0.4831729233264923,0.6227784752845764,-0.20076999068260193
1772456320519704600,4.54070458984375,0.5012560486793518,0.6860489845275879,-0.14813676476478577
1772456320529723600,4.5507236328125,0.453156977891922,0.7033225297927856,-0.1586810201406479
1772456320539741700,4.56074169921875,0.3335850238800049,0.6283071637153625,-0.2968989312648773
1772456320549760500,4.570760498046875,0.15229591727256775,0.4473547041416168,-0.5165852308273315
1772456320559778800,4.58077880859375,-0.020618202164769173,0.16588231921195984,-0.6681065559387207
1772456320569797600,4.590797607421875,-0.1373211145401001,-0.12786754965782166,-0.6491382122039795
1772456320579815700,4.600815673828125,-0.23422594368457794,-0.3678756654262543,-0.4363284409046173
1772456320589833700,4.610833740234375,-0.3025064468383789,-0.5739201903343201,-0.06464676558971405
1772456320599852800,4.620852783203125,-0.28030332922935486,-0.6614433526992798,0.2517976760864258
1772456320609870600,4.63087060546875,-0.1883251965045929,-0.6080275177955627,0.3183037340641022
1772456320619889700,4.6408896484375,-0.0019310980569571257,-0.533673882484436,0.22175578773021698
1772456320629907700,4.65090771484375,0.18478739261627197,-0.5165529251098633,0.05528877303004265
1772456320639926800,4.6609267578125,0.35463908314704895,-0.5453163385391235,-0.09405456483364105
1772456320649944800,4.67094482421875,0.4945610463619232,-0.6166019439697266,-0.19942119717597961
1772456320659963600,4.680963623046875,0.5483365058898926,-0.6582699418067932,-0.3315247893333435
1772456320669981700,4.690981689453125,0.4169803261756897,-0.5529725551605225,-0.49404314160346985
1772456320679999500,4.70099951171875,0.2353236973285675,-0.3121338188648224,-0.4997290372848511
1772456320690018600,4.7110185546875,0.11802317947149277,0.03475355729460716,-0.26672452688217163
1772456320700036900,4.721036865234375,0.09511736035346985,0.3940533399581909,0.10245205461978912
1772456320710055700,4.7310556640625,0.11883413791656494,0.6497090458869934,0.4791921377182007
1772456320720073700,4.74107373046875,0.1757292002439499,0.7706552743911743,0.7778148651123047
1772456320730092800,4.7510927734375,0.26500287652015686,0.7613970637321472,0.9723928570747375
1772456320740110600,4.761110595703125,0.32509714365005493,0.765624463558197,1.066367745399475
1772456320750129700,4.771129638671875,0.3264545500278473,0.7792625427246094,1.0293136835098267
1772456320760147700,4.781147705078125,0.2627287209033966,0.7855883240699768,0.8242131471633911
1772456320770166500,4.79116650390625,0.12188505381345749,0.659074068069458,0.5393649339675903
1772456320780184800,4.801184814453125,-0.06303935497999191,0.4860098659992218,0.2826205790042877
1772456320790204000,4.811203857421875,-0.26757121086120605,0.4135982394218445,0.11572292447090149
1772456320800221700,4.8212216796875,-0.3732641637325287,0.4234534502029419,0.012503759004175663
1772456320810239700,4.83123974609375,-0.3860348165035248,0.29974988102912903,-0.05811954662203789
1772456320820258600,4.841258544921875,-0.3167743682861328,0.06326940655708313,-0.1434389054775238
1772456320830276600,4.851276611328125,-0.25104328989982605,-0.07579873502254486,-0.31979528069496155
1772456320840295700,4.861295654296875,-0.19532348215579987,0.03392167016863823,-0.4965839684009552
1772456320850313700,4.871313720703125,-0.09772661328315735,0.2581973671913147,-0.4970708191394806
1772456320860332800,4.881332763671875,0.05098111927509308,0.40892136096954346,-0.3141145706176758
1772456320870350600,4.8913505859375,0.21031086146831512,0.38952717185020447,-0.08377297222614288
1772456320880369700,4.90136962890625,0.32985246181488037,0.34218648076057434,0.09752822667360306
1772456320890387700,4.9113876953125,0.38458016514778137,0.2509223520755768,0.1423681378364563
1772456320900406500,4.921406494140625,0.3732733130455017,0.07399783283472061,0.039372142404317856
1772456320910424800,4.9314248046875,0.33137407898902893,-0.10562625527381897,-0.14547067880630493
1772456320920442600,4.941442626953125,0.272563636302948,-0.22425726056098938,-0.3484025299549103
1772456320930461700,4.951461669921875,0.1613689661026001,-0.3105335831642151,-0.49163559079170227
1772456320940479700,4.961479736328125,0.013837398029863834,-0.4329952895641327,-0.5358776450157166
1772456320950498800,4.971498779296875,-0.12417159974575043,-0.6261357069015503,-0.4808546304702759
1772456320960516600,4.9815166015625,-0.1984003782272339,-0.8355923891067505,-0.32866403460502625
1772456320970535700,4.99153564453125,-0.23842474818229675,-0.9554796814918518,-0.13023029267787933
1772456320980553700,5.0015537109375,-0.21681152284145355,-0.9449906945228577,0.04792461544275284
1772456320990572800,5.01157275390625,-0.13494887948036194,-0.8088967800140381,0.15054526925086975
1772456321000590800,5.0215908203125,-0.01657840423285961,-0.6348618865013123,0.13834671676158905
1772456321010609700,5.031609619140625,0.10929723083972931,-0.38699084520339966,0.04643517732620239
1772456321020627700,5.041627685546875,0.24045392870903015,-0.10584652423858643,-0.020229339599609375
1772456321030645800,5.051645751953125,0.31878921389579773,0.09425914287567139,-0.054828327149152756
1772456321040664600,5.06166455078125,0.32708418369293213,0.163229838013649,-0.07904982566833496
1772456321050683000,5.071682861328125,0.28837087750434875,0.170588418841362,-0.07314852625131607
1772456321060702000,5.081701904296875,0.2505767047405243,0.07176776975393295,-0.0252532996237278
1772456321070719700,5.0917197265625,0.23098939657211304,-0.051892124116420746,0.06954378634691238
1772456321080738800,5.10173876953125,0.19268092513084412,-0.16021014750003815,0.1742926836013794
1772456321090756600,5.111756591796875,0.1486506164073944,-0.28541627526283264,0.23268435895442963
1772456321100775700,5.121775634765625,0.14344200491905212,-0.44657665491104126,0.3158186674118042
1772456321110793700,5.131793701171875,0.13877667486667633,-0.5042804479598999,0.4529125988483429
1772456321120812500,5.1418125,0.09081149846315384,-0.3340177536010742,0.5976226329803467
1772456321130830800,5.151830810546875,0.03702789545059204,0.057239748537540436,0.6943111419677734
1772456321140850000,5.161849853515625,-0.0671219751238823,0.4820496737957001,0.7171484231948853
1772456321150867700,5.17186767578125,-0.2145330011844635,0.8489336967468262,0.6420965194702148
1772456321160885800,5.1818857421875,-0.3730824589729309,1.1149182319641113,0.43684616684913635
1772456321170904600,5.191904541015625,-0.4947122037410736,1.2874664068222046,0.1654498279094696
1772456321180922600,5.201922607421875,-0.5281075835227966,1.2333829402923584,-0.06208325922489166
1772456321190941700,5.211941650390625,-0.5058299899101257,0.8761554956436157,-0.19627834856510162
1772456321200959700,5.221959716796875,-0.43389156460762024,0.285349577665329,-0.288429319858551
1772456321210978800,5.231978759765625,-0.35390910506248474,-0.1984168291091919,-0.34525373578071594
1772456321220996600,5.24199658203125,-0.2519364655017853,-0.36746639013290405,-0.34742534160614014
1772456321231015700,5.252015625,-0.10332595556974411,-0.21526168286800385,-0.2706317603588104
1772456321241033700,5.26203369140625,0.07558703422546387,-0.004443381913006306,-0.1754361391067505
1772456321251052500,5.272052490234375,0.23655860126018524,0.13922323286533356,-0.14273065328598022
1772456321261070800,5.28207080078125,0.3627445697784424,0.2477637082338333,-0.14798323810100555
1772456321271089000,5.2920888671875,0.44514864683151245,0.2829347550868988,-0.15067702531814575
1772456321281107700,5.302107666015625,0.4742175042629242,0.207667276263237,-0.14453628659248352
1772456321291125800,5.312125732421875,0.45208266377449036,0.06252659857273102,-0.169363871216774
1772456321301144800,5.322144775390625,0.3797578513622284,-0.15829020738601685,-0.22740453481674194
1772456321311162600,5.33216259765625,0.2415110170841217,-0.38035282492637634,-0.3001227080821991
1772456321321181700,5.342181640625,0.04307476058602333,-0.6126700043678284,-0.33056947588920593
1772456321331199700,5.35219970703125,-0.17845843732357025,-0.7533517479896545,-0.3042939305305481
1772456321341218800,5.36221875,-0.3732444941997528,-0.7659767866134644,-0.18730586767196655
1772456321351236900,5.37223681640625,-0.47458335757255554,-0.5905642509460449,-0.07893892377614975
1772456321361255700,5.382255615234375,-0.4679080545902252,-0.21804198622703552,-0.05568012595176697
1772456321371273700,5.392273681640625,-0.3753240704536438,0.15607967972755432,-0.057880960404872894
1772456321381292800,5.402292724609375,-0.2377040684223175,0.38576382398605347,-0.06080102548003197
1772456321391310600,5.412310546875,-0.04880605265498161,0.4799611568450928,-0.03462641313672066
1772456321401329000,5.422328857421875,0.166383296251297,0.39200717210769653,-0.011209690012037754
1772456321411347700,5.43234765625,0.36095675826072693,0.1929963380098343,-0.039053574204444885
1772456321421365800,5.44236572265625,0.44659939408302307,-0.0871061310172081,-0.13717378675937653
1772456321431384800,5.452384765625,0.4007298946380615,-0.3177492022514343,-0.23017776012420654
1772456321441402600,5.462402587890625,0.242366224527359,-0.5194109678268433,-0.2448221743106842
1772456321451421700,5.472421630859375,0.10497613251209259,-0.64861661195755,-0.12241743505001068
1772456321461439700,5.482439697265625,0.041871652007102966,-0.6300326585769653,0.10515838116407394
1772456321471458600,5.49245849609375,0.0373312272131443,-0.5113685727119446,0.37354323267936707
1772456321481476900,5.502476806640625,0.03389015793800354,-0.2831346094608307,0.6380390524864197
1772456321491496000,5.512495849609375,0.08293839544057846,-0.012319088913500309,0.8278588056564331
1772456321501513700,5.522513671875,0.1694703996181488,0.3264436721801758,0.9254135489463806
1772456321511531800,5.53253173828125,0.1769554764032364,0.5978165864944458,0.9184480309486389
1772456321521550600,5.542550537109375,0.09719805419445038,0.6804580092430115,0.7278327345848083
1772456321531568600,5.552568603515625,-0.07477636635303497,0.6503381729125977,0.3287431001663208
1772456321541587700,5.562587646484375,-0.23173430562019348,0.6367709636688232,-0.02624879963696003
1772456321551605800,5.572605712890625,-0.35165005922317505,0.6322654485702515,-0.16019754111766815
1772456321561624800,5.582624755859375,-0.40340036153793335,0.5502915978431702,-0.106094591319561
1772456321571642600,5.592642578125,-0.3566981256008148,0.38387757539749146,-0.03829983249306679
1772456321581661700,5.60266162109375,-0.2679342031478882,0.20699499547481537,-0.07566197216510773
1772456321591679700,5.6126796875,-0.15776322782039642,0.1687227189540863,-0.17692920565605164
1772456321601698600,5.622698486328125,-0.007054406683892012,0.28582510352134705,-0.2223249226808548
1772456321611716900,5.632716796875,0.15860380232334137,0.4488462507724762,-0.16946490108966827
1772456321621734700,5.642734619140625,0.2843577563762665,0.4516659379005432,-0.09717567265033722
1772456321631753700,5.652753662109375,0.3462226986885071,0.320697546005249,-0.03526996448636055
1772456321641771800,5.662771728515625,0.3411165475845337,0.12242750823497772,0.034402500838041306
1772456321651790600,5.67279052734375,0.27652209997177124,-0.16588018834590912,0.049323923885822296
1772456321661808600,5.68280859375,0.18637530505657196,-0.5310653448104858,-0.03732952103018761
1772456321671827700,5.69282763671875,0.12803874909877777,-0.8853781223297119,-0.1866321861743927
1772456321681845800,5.702845703125,0.09361890703439713,-1.1128953695297241,-0.3006923794746399
1772456321691864800,5.71286474609375,0.06440429389476776,-1.174903392791748,-0.32027673721313477
1772456321701883000,5.7228828125,0.005834054201841354,-1.0717695951461792,-0.2464224398136139
1772456321711901700,5.732901611328125,-0.06253354996442795,-0.8301311731338501,-0.1339869648218155
1772456321721919700,5.742919677734375,-0.10276084393262863,-0.5306050181388855,-0.016286760568618774
1772456321731938800,5.752938720703125,-0.12407650798559189,-0.17767120897769928,0.09130574762821198
1772456321741956600,5.76295654296875,-0.11398104578256607,0.14743243157863617,0.2001020610332489
1772456321751975000,5.772974853515625,-0.10418407618999481,0.25353941321372986,0.2829798758029938
1772456321761993700,5.78299365234375,-0.1059173196554184,0.18848145008087158,0.30733293294906616
1772456321772011800,5.79301171875,-0.10076756775379181,0.0030841610860079527,0.23127678036689758
1772456321782030800,5.80303076171875,-0.0691155195236206,-0.2645967900753021,0.06604007631540298
1772456321792048600,5.813048583984375,-0.0016328804194927216,-0.4387182593345642,-0.07578203827142715
1772456321802067700,5.823067626953125,0.09834152460098267,-0.4776163697242737,-0.11575133353471756
1772456321812085500,5.83308544921875,0.24977391958236694,-0.43867748975753784,-0.08253159373998642
1772456321822104600,5.8431044921875,0.37785059213638306,-0.31886202096939087,-0.005786722060292959
1772456321832123000,5.853122802734375,0.4597657024860382,-0.25322094559669495,0.11742069572210312
1772456321842141700,5.8631416015625,0.4514946937561035,-0.2757863700389862,0.30184605717658997
1772456321852159700,5.87315966796875,0.36014559864997864,-0.39075636863708496,0.5060425996780396
1772456321862177800,5.883177734375,0.21332533657550812,-0.42494669556617737,0.7232531905174255
1772456321872196600,5.893196533203125,0.01916305162012577,-0.1794394701719284,0.94564288854599
1772456321882215000,5.90321484375,-0.19151213765144348,0.2598731219768524,1.1009058952331543
1772456321892233700,5.913233642578125,-0.3944377899169922,0.7523337006568909,1.154205322265625
1772456321902251800,5.923251708984375,-0.531280517578125,1.0589009523391724,1.0692288875579834
1772456321912270800,5.933270751953125,-0.5729725956916809,1.1865818500518799,0.8187689781188965
1772456321922288600,5.94328857421875,-0.5543510317802429,1.299509882926941,0.4884125590324402
1772456321932308000,5.953307861328125,-0.4057766795158386,1.3456419706344604,0.16414713859558105
1772456321942326000,5.963325927734375,-0.16301065683364868,1.1861079931259155,-0.15322229266166687
1772456321952344800,5.9733447265625,0.0423281155526638,0.8656337857246399,-0.44739800691604614
1772456321962363000,5.98336279296875,0.16143463551998138,0.480045348405838,-0.6542325019836426
1772456321972381000,5.993380859375,0.22232115268707275,0.1236688643693924,-0.7187805771827698
1772456321982400000,6.00339990234375,0.2511792480945587,-0.10926463454961777,-0.6206931471824646
1772456321992418000,6.01341796875,0.29376107454299927,-0.2167263776063919,-0.40231770277023315
1772456322002436900,6.023436767578125,0.3660178482532501,-0.21808575093746185,-0.15391118824481964
1772456322012455000,6.033454833984375,0.4066736400127411,-0.268642395734787,-0.02583097666501999
1772456322022474000,6.043473876953125,0.36212360858917236,-0.33928877115249634,-0.026655932888388634
1772456322032492000,6.053491943359375,0.2709561586380005,-0.45668119192123413,-0.14677993953227997
1772456322042511000,6.063510986328125,0.17258648574352264,-0.5680941343307495,-0.3255646526813507
1772456322052529200,6.073529052734375,0.08640392124652863,-0.6616102457046509,-0.48114916682243347
1772456322062548000,6.0835478515625,0.018183818086981773,-0.6931856274604797,-0.5512909293174744
1772456322072566000,6.09356591796875,-0.033202141523361206,-0.5936625003814697,-0.5097506642341614
1772456322082585000,6.103585205078125,-0.07064838707447052,-0.3882514238357544,-0.35581621527671814
1772456322092603000,6.113602783203125,-0.08186589181423187,-0.22798770666122437,-0.15262582898139954
1772456322102621200,6.12362109375,-0.06633204221725464,-0.17880746722221375,-0.00041987522854469717
1772456322112640000,6.133639892578125,-0.040689531713724136,-0.12700152397155762,0.05946396291255951
1772456322122658000,6.143657958984375,0.02171717770397663,-0.11446394771337509,0.027667824178934097
1772456322132677000,6.153677001953125,0.11021322011947632,-0.18023978173732758,-0.08191299438476562
1772456322142695000,6.16369482421875,0.19699078798294067,-0.2367556244134903,-0.15318800508975983
1772456322152714000,6.1737138671875,0.25601789355278015,-0.2627542018890381,-0.16243715584278107
1772456322162731800,6.183731689453125,0.2617778480052948,-0.23356235027313232,-0.15268416702747345
1772456322172750800,6.193750732421875,0.24292637407779694,-0.14714251458644867,-0.16216875612735748
1772456322182769200,6.20376904296875,0.14857324957847595,-0.08955969661474228,-0.19183118641376495
1772456322192788000,6.2137880859375,0.062310006469488144,-0.05849924683570862,-0.1714356392621994
1772456322202806000,6.223805908203125,0.009450453333556652,-0.09301816672086716,-0.05782393366098404
1772456322212823800,6.23382373046875,-0.004035527817904949,-0.25356391072273254,0.1335550844669342
1772456322222843000,6.2438427734375,0.029828663915395737,-0.429505854845047,0.33004191517829895
1772456322232861000,6.25386083984375,0.09215089678764343,-0.5569860339164734,0.5139105319976807
1772456322242879700,6.263879638671875,0.12284804880619049,-0.6454935073852539,0.6639891862869263
1772456322252898000,6.27389794921875,0.10819560289382935,-0.6108660101890564,0.7874929904937744
1772456322262916000,6.283916015625,0.024988479912281036,-0.2935176193714142,0.8905858397483826
1772456322272935000,6.293934814453125,-0.13139739632606506,0.14397023618221283,0.9617242217063904
1772456322282953000,6.303952880859375,-0.3078765869140625,0.42834949493408203,0.8236387372016907
1772456322292972000,6.313971923828125,-0.5579897165298462,0.7550647854804993,0.37121298909187317
1772456322302990000,6.323989990234375,-0.7691869139671326,1.124658226966858,-0.1442282497882843
1772456322313009000,6.3340087890625,-0.8110842704772949,1.4169631004333496,-0.4029652774333954
1772456322323027000,6.34402685546875,-0.7323155403137207,1.3595436811447144,-0.33833467960357666
1772456322333046000,6.3540458984375,-0.5708851218223572,1.00520658493042,-0.1392889767885208
1772456322343064000,6.36406396484375,-0.43163931369781494,0.557783842086792,-0.10052265971899033
1772456322353083000,6.374082763671875,-0.31993594765663147,0.2019682079553604,-0.22972458600997925
1772456322363101000,6.384100830078125,-0.14411069452762604,-0.005018950439989567,-0.3329465687274933
1772456322373120000,6.3941201171875,0.10793645679950714,-0.17095784842967987,-0.2805941700935364
1772456322383138000,6.404137939453125,0.3308852016925812,-0.340825617313385,-0.09965889900922775
1772456322393156000,6.414156005859375,0.42823147773742676,-0.38531187176704407,0.11018087714910507
1772456322403175000,6.4241748046875,0.458154559135437,-0.3976069986820221,0.18484364449977875
1772456322413193000,6.43419287109375,0.4264541566371918,-0.38757622241973877,0.06011929735541344
1772456322423212000,6.4442119140625,0.39529862999916077,-0.37047186493873596,-0.15604032576084137
1772456322433229800,6.454229736328125,0.364014208316803,-0.31559130549430847,-0.31778207421302795
1772456322443249000,6.464248779296875,0.2974741458892822,-0.25449204444885254,-0.3350200653076172
1772456322453267200,6.47426708984375,0.19018761813640594,-0.2442290186882019,-0.22134089469909668
1772456322463286000,6.4842861328125,0.060924798250198364,-0.2612462639808655,-0.08989490568637848
1772456322473304000,6.494303955078125,-0.06682810187339783,-0.3056779205799103,-0.029467780143022537
1772456322483323100,6.5043232421875,-0.16573314368724823,-0.39324524998664856,-0.04014957323670387
1772456322493341000,6.5143408203125,-0.22641274333000183,-0.42659470438957214,-0.056889668107032776
1772456322503359000,6.52435888671875,-0.21786952018737793,-0.38379067182540894,-0.08621899038553238
1772456322513377800,6.534377685546875,-0.1752067357301712,-0.2720785140991211,-0.09860721975564957
1772456322523396000,6.54439599609375,-0.09564116597175598,-0.1566963642835617,-0.09120345115661621
1772456322533415200,6.554415283203125,0.016455277800559998,-0.0017150326166301966,-0.10619385540485382
1772456322543433000,6.564432861328125,0.11476323753595352,0.1285100281238556,-0.15798741579055786
1772456322553452000,6.5744521484375,0.2091299444437027,0.13693439960479736,-0.21651650965213776
1772456322563469800,6.5844697265625,0.2971402704715729,0.034541983157396317,-0.24986538290977478
1772456322573489000,6.594489013671875,0.3437269330024719,-0.11237369477748871,-0.22627271711826324
1772456322583508000,6.604508056640625,0.29191580414772034,-0.19043336808681488,-0.13525648415088654
1772456322593525800,6.61452587890625,0.15352703630924225,-0.2722877562046051,0.008580581285059452
1772456322603544000,6.6245439453125,0.038644466549158096,-0.3789845108985901,0.18193531036376953
1772456322613563100,6.634563232421875,-0.0338347926735878,-0.4632200300693512,0.37573060393333435
1772456322623581000,6.644580810546875,-0.1404077559709549,-0.44870781898498535,0.5541411638259888
1772456322633600000,6.65460009765625,-0.2493440955877304,-0.27155062556266785,0.7128581404685974
1772456322643617800,6.66461767578125,-0.314225435256958,0.1757012903690338,0.8640644550323486
1772456322653636900,6.674636962890625,-0.35561227798461914,0.5374533534049988,0.9095720052719116
1772456322663655200,6.6846552734375,-0.4057857394218445,0.5876269340515137,0.732367217540741
1772456322673674000,6.694674072265625,-0.5227379202842712,0.7661923766136169,0.3743691146373749
1772456322683692000,6.704692138671875,-0.5157352089881897,1.094679594039917,0.0931980162858963
1772456322693711000,6.714711181640625,-0.4678336977958679,1.2170166969299316,-0.0873403325676918
1772456322703729000,6.72472900390625,-0.4686540961265564,1.1086212396621704,-0.18680599331855774
1772456322713747000,6.734746826171875,-0.45920494198799133,0.6821377873420715,-0.29385602474212646
1772456322723766000,6.74476611328125,-0.453459233045578,0.1209094226360321,-0.420127272605896
1772456322733784000,6.7547841796875,-0.4112992584705353,-0.256663978099823,-0.46211016178131104
1772456322743803100,6.76480322265625,-0.19036626815795898,-0.26024818420410156,-0.3423278331756592
1772456322753821000,6.774821044921875,0.1687045395374298,-0.12770211696624756,-0.05786629021167755
1772456322763840000,6.784840087890625,0.47758814692497253,-0.043051790446043015,0.19462905824184418
1772456322773858000,6.794858154296875,0.6689778566360474,-0.051125429570674896,0.2358558475971222
1772456322783876900,6.804876953125,0.7649689316749573,-0.14565788209438324,0.075896717607975
1772456322793895000,6.81489501953125,0.7440551519393921,-0.40323030948638916,-0.18525178730487823
1772456322803914000,6.8249140625,0.653537392616272,-0.7467424869537354,-0.46024617552757263
1772456322813932000,6.83493212890625,0.5315489172935486,-1.0086244344711304,-0.6750159859657288
1772456322823951000,6.844951171875,0.3806321918964386,-1.0885182619094849,-0.7780517339706421
1772456322833969000,6.854968994140625,0.22846132516860962,-1.0095100402832031,-0.777387797832489
1772456322843987000,6.864987060546875,0.08588305860757828,-0.806082010269165,-0.6672384142875671
1772456322854006000,6.875006103515625,-0.027681320905685425,-0.6508833765983582,-0.49193501472473145
1772456322864023800,6.88502392578125,-0.10480175167322159,-0.5267804265022278,-0.269924134016037
1772456322874043000,6.89504296875,-0.14262637495994568,-0.41372790932655334,-0.06009500473737717
1772456322884061200,6.905061279296875,-0.15301284193992615,-0.27776604890823364,0.07802951335906982
1772456322894080000,6.915080078125,-0.10596703737974167,-0.1292615383863449,0.12265370786190033
1772456322904098000,6.92509814453125,0.022176280617713928,-0.022551339119672775,0.06560240685939789
1772456322914117000,6.9351171875,0.18286076188087463,-0.021026412025094032,-0.07743091136217117
1772456322924135000,6.945135009765625,0.30123215913772583,0.014585111290216446,-0.255302369594574
1772456322934154000,6.955154052734375,0.361704021692276,0.123236745595932,-0.4204426109790802
1772456322944172000,6.965172119140625,0.3673882782459259,0.20375609397888184,-0.5045603513717651
1772456322954190800,6.97519091796875,0.3366199731826782,0.24117989838123322,-0.45350414514541626
1772456322964209000,6.985208984375,0.2468431293964386,0.19446764886379242,-0.32244303822517395
1772456322974227000,6.99522705078125,0.11754799634218216,-0.03469070792198181,-0.20644961297512054
1772456322984246000,7.00524609375,0.002632308518514037,-0.30090096592903137,-0.07502947002649307
1772456322994263800,7.015263916015625,-0.042409732937812805,-0.3728023171424866,0.15350250899791718
1772456323004283000,7.025282958984375,-0.09316255897283554,-0.22215738892555237,0.4553768038749695
1772456323014301000,7.035301025390625,-0.14934833347797394,-0.053711120039224625,0.6775035858154297
1772456323024320000,7.045320068359375,-0.19077174365520477,0.2411305457353592,0.8062177896499634
1772456323034338000,7.055338134765625,-0.20019108057022095,0.5561531782150269,0.8036015033721924
1772456323044356900,7.06535693359375,-0.18744106590747833,0.6182964444160461,0.49701449275016785
1772456323054375000,7.075375,-0.24364548921585083,0.6967347860336304,-0.03338358923792839
1772456323064394000,7.08539404296875,-0.2827845513820648,0.8074289560317993,-0.47719621658325195
1772456323074411800,7.095411865234375,-0.25885844230651855,0.7488380670547485,-0.7386967539787292
1772456323084430800,7.105430908203125,-0.2225024551153183,0.48649170994758606,-0.8875430226325989
1772456323094449200,7.11544921875,-0.18619957566261292,0.3543270230293274,-0.8981224298477173
1772456323104467000,7.125467041015625,-0.1105315312743187,0.4957972466945648,-0.6787084341049194
1772456323114486000,7.135486083984375,0.044113174080848694,0.690236508846283,-0.2852516770362854
1772456323124503800,7.14550390625,0.22924593091011047,0.6802987456321716,0.06993039697408676
1772456323134523000,7.15552294921875,0.3672645092010498,0.5079501867294312,0.2316167652606964
1772456323144541000,7.165541015625,0.4560249149799347,0.3258516490459442,0.13098515570163727
1772456323154559700,7.175559814453125,0.4514184594154358,-0.01962132938206196,-0.17703579366207123
1772456323164578000,7.185578125,0.36914917826652527,-0.5565711259841919,-0.5580687522888184
1772456323174597000,7.19559716796875,0.2495093196630478,-1.0371263027191162,-0.8903329968452454
1772456323184615000,7.205614990234375,0.15897053480148315,-1.2801733016967773,-1.0853620767593384
1772456323194634000,7.215634033203125,0.07499361038208008,-1.23245370388031,-1.103735327720642
1772456323204651800,7.22565185546875,0.010324539616703987,-0.9855884313583374,-0.9360410571098328
1772456323214670800,7.2356708984375,-0.04827006533741951,-0.6610396504402161,-0.6203911900520325
1772456323224689000,7.24568896484375,-0.09448716044425964,-0.32226040959358215,-0.21920405328273773
1772456323234707000,7.25570703125,-0.13341031968593597,0.09062889218330383,0.17343616485595703
1772456323244726000,7.26572607421875,-0.12464970350265503,0.49424609541893005,0.41740548610687256
1772456323254744000,7.275744140625,-0.05468767136335373,0.7150716781616211,0.4713677763938904
1772456323264763000,7.285762939453125,0.03455032408237457,0.798296332359314,0.42844897508621216
1772456323274781000,7.295781005859375,0.10506310313940048,0.6231338381767273,0.31152740120887756
1772456323284800000,7.305800048828125,0.16933147609233856,0.30394428968429565,0.0987095907330513
1772456323294818000,7.315818115234375,0.19909469783306122,-0.05401623249053955,-0.16130466759204865
1772456323304836900,7.3258369140625,0.16920766234397888,-0.403835266828537,-0.38401299715042114
1772456323314855000,7.33585498046875,0.09538084268569946,-0.6689327359199524,-0.4657813608646393
1772456323324874000,7.3458740234375,-0.006540287286043167,-0.8041622638702393,-0.41615453362464905
1772456323334892000,7.35589208984375,-0.09616071730852127,-0.7586893439292908,-0.259403258562088
1772456323344910800,7.365910888671875,-0.1560189425945282,-0.5768926739692688,-0.019413437694311142
1772456323354929000,7.375928955078125,-0.17588666081428528,-0.28142988681793213,0.3094558119773865
1772456323364947000,7.385947021484375,-0.17607247829437256,0.09846612811088562,0.714230477809906
1772456323374966000,7.395966064453125,-0.13891339302062988,0.4800494313240051,1.0880502462387085
1772456323384984000,7.405984130859375,-0.10351677238941193,0.8443440198898315,1.2976183891296387
1772456323395003000,7.4160029296875,-0.11366235464811325,1.2270948886871338,1.3357033729553223
1772456323405021000,7.42602099609375,-0.20911212265491486,1.36245596408844,1.1258329153060913
1772456323415040000,7.4360400390625,-0.38113847374916077,1.097876787185669,0.6606780290603638
1772456323425057800,7.446057861328125,-0.562631368637085,0.7616576552391052,0.08250780403614044
1772456323435076900,7.456076904296875,-0.6951531767845154,0.550013542175293,-0.3963008522987366
1772456323445095000,7.466094970703125,-0.7675142288208008,0.34126344323158264,-0.6534227728843689
1772456323455114000,7.476114013671875,-0.7792342901229858,-0.015075224451720715,-0.6827644109725952
1772456323465132000,7.486132080078125,-0.6992819309234619,-0.11213306337594986,-0.4562327265739441
1772456323475149800,7.49614990234375,-0.46747297048568726,-0.019263043999671936,-0.11495529860258102
1772456323485169000,7.5061689453125,-0.18442188203334808,0.1595739871263504,0.09326360374689102
1772456323495187000,7.51618701171875,0.08089207112789154,0.3982142508029938,0.18047679960727692
1772456323505205800,7.526205810546875,0.32374635338783264,0.47440627217292786,0.2663724720478058
1772456323515224000,7.53622412109375,0.5188836455345154,0.36524009704589844,0.3972431421279907
1772456323525243100,7.5462431640625,0.6188313364982605,0.1955074667930603,0.501288115978241
1772456323535261000,7.556260986328125,0.5754151344299316,-0.07379405200481415,0.44850271940231323
1772456323545280000,7.566280029296875,0.41492319107055664,-0.3170538544654846,0.226928249001503
1772456323555297800,7.5762978515625,0.21388328075408936,-0.4570932388305664,-0.10833524167537689
1772456323565316900,7.58631689453125,-0.0007192118791863322,-0.43922707438468933,-0.4233311712741852
1772456323575335000,7.5963349609375,-0.2017631083726883,-0.31790435314178467,-0.6138401627540588
1772456323585353700,7.606353759765625,-0.36254647374153137,-0.2542048394680023,-0.6449811458587646
1772456323595372000,7.6163720703125,-0.4212329685688019,-0.29296156764030457,-0.5432036519050598
1772456323605391000,7.62639111328125,-0.3375943601131439,-0.3477897346019745,-0.31771543622016907
1772456323615409000,7.636408935546875,-0.17037764191627502,-0.39938023686408997,-0.0655825287103653
1772456323625427000,7.646427001953125,0.03551585227251053,-0.32177117466926575,0.09319751709699631
1772456323635445800,7.65644580078125,0.24141521751880646,-0.11266590654850006,0.10825183987617493
1772456323645464000,7.666464111328125,0.3594881296157837,0.015356658026576042,0.07771946489810944
1772456323655483000,7.67648291015625,0.375236451625824,0.10686739534139633,0.05071021988987923
1772456323665501000,7.6865009765625,0.3593556582927704,0.05798584967851639,-0.0034413684625178576
1772456323675520000,7.69652001953125,0.302112340927124,-0.08219842612743378,-0.11905824393033981
1772456323685538000,7.7065380859375,0.21383219957351685,-0.1992550939321518,-0.2714337706565857
1772456323695556900,7.716556884765625,0.11517111957073212,-0.2371489554643631,-0.4045257568359375
1772456323705575000,7.726574951171875,0.022952809929847717,-0.254423588514328,-0.44513407349586487
1772456323715594000,7.736593994140625,-0.04828089103102684,-0.29546797275543213,-0.368018239736557
1772456323725612000,7.746612060546875,-0.0969448909163475,-0.3413724899291992,-0.2267356514930725
1772456323735631000,7.756631103515625,-0.10354048013687134,-0.37095117568969727,-0.0572906956076622
1772456323745649000,7.76664892578125,-0.07613442093133926,-0.35988572239875793,0.11865503340959549
1772456323755667000,7.7766669921875,-0.04461510851979256,-0.20727035403251648,0.3565429747104645
1772456323765686000,7.78668603515625,0.018761279061436653,0.056496135890483856,0.6513983607292175
1772456323775703800,7.796703857421875,0.06340011954307556,0.34331297874450684,0.9145498275756836
1772456323785723000,7.806722900390625,0.0174460057169199,0.6934695243835449,1.0564404726028442
1772456323795741000,7.816740966796875,-0.11434877663850784,0.9832577109336853,1.0015788078308105
1772456323805760000,7.826760009765625,-0.3468451201915741,1.129304051399231,0.754659116268158
1772456323815778000,7.836778076171875,-0.5920866131782532,1.3558082580566406,0.4418433606624603
1772456323825796900,7.846796875,-0.7366490364074707,1.5797815322875977,0.10914133489131927
1772456323835815000,7.85681494140625,-0.7338828444480896,1.6227673292160034,-0.18346497416496277
1772456323845834000,7.866833984375,-0.683978796005249,1.3961561918258667,-0.34871500730514526
1772456323855851800,7.876851806640625,-0.5446275472640991,0.9330103397369385,-0.42769771814346313
1772456323865870800,7.886870849609375,-0.3255484998226166,0.4319747984409332,-0.5617076754570007
1772456323875889000,7.896888916015625,-0.07066959142684937,0.1620389223098755,-0.6811901330947876
1772456323885907000,7.906906982421875,0.23130686581134796,0.15256774425506592,-0.5498589277267456
1772456323895926000,7.916926025390625,0.560865581035614,-0.12249550968408585,-0.22805318236351013
1772456323905943800,7.92694384765625,0.7782586812973022,-0.5261120796203613,0.09859573841094971
1772456323915963000,7.936962890625,0.841424822807312,-0.796845555305481,0.30386897921562195
1772456323925981000,7.94698095703125,0.7757174968719482,-0.8897770047187805,0.25419947504997253
1772456323935999200,7.956999267578125,0.6842426657676697,-0.8449679613113403,-0.019124723970890045
1772456323946017300,7.967017333984375,0.5278047323226929,-0.7430281639099121,-0.4034814238548279
1772456323956036400,7.977036376953125,0.296271950006485,-0.6138856410980225,-0.7262334227561951
1772456323966054100,7.98705419921875,0.065690778195858,-0.5150473713874817,-0.8569864630699158
1772456323976073200,7.9970732421875,-0.10699976980686188,-0.4640590250492096,-0.7448484897613525
1772456323986091300,8.00709130859375,-0.20854926109313965,-0.49447324872016907,-0.4935052990913391
1772456323996110000,8.017110107421875,-0.25602781772613525,-0.5531437397003174,-0.21965667605400085
1772456324006128400,8.02712841796875,-0.258538156747818,-0.5240499973297119,-0.019137822091579437
1772456324016146200,8.037146240234375,-0.23660197854042053,-0.31684380769729614,0.1715114861726761
1772456324026165200,8.047165283203125,-0.18291440606117249,-0.08698415756225586,0.36352285742759705
1772456324036183000,8.05718310546875,-0.06629137694835663,0.04239700734615326,0.4691201150417328
1772456324046202000,8.0672021484375,0.08737624436616898,0.07186668366193771,0.4564574360847473
1772456324056220400,8.077220458984375,0.27657198905944824,0.14385086297988892,0.34657859802246094
1772456324066239200,8.0872392578125,0.47509297728538513,0.1791967898607254,0.19892911612987518
1772456324076257300,8.09725732421875,0.5955658555030823,0.20540441572666168,0.05063791945576668
1772456324086276400,8.1072763671875,0.6290615797042847,0.18423962593078613,-0.09245987981557846
1772456324096294100,8.117294189453125,0.6079149842262268,0.14985689520835876,-0.17307482659816742
1772456324106313200,8.127313232421875,0.5715813040733337,0.13460718095302582,-0.15921485424041748
1772456324116331300,8.137331298828125,0.4935198128223419,0.06075479835271835,-0.0923876166343689
1772456324126350000,8.14735009765625,0.37387505173683167,-0.08412332087755203,0.028936736285686493
1772456324136368400,8.157368408203125,0.2527155876159668,-0.19323089718818665,0.20958800613880157
1772456324146387500,8.167387451171875,0.15046755969524384,-0.3376363515853882,0.4182095229625702
1772456324156405200,8.1774052734375,0.05896108224987984,-0.5300529599189758,0.6335992813110352
1772456324166423300,8.18742333984375,-0.008744846098124981,-0.5780529975891113,0.8384684920310974
1772456324176442000,8.197442138671875,-0.09195718169212341,-0.4049377143383026,0.9793624877929688
1772456324186460200,8.207460205078124,-0.1904541403055191,0.0177311934530735,1.0607589483261108
1772456324196479200,8.217479248046875,-0.2815488874912262,0.4825827479362488,1.0454859733581543
1772456324206497300,8.227497314453124,-0.3969613015651703,0.7988095283508301,0.8412074446678162
1772456324216516400,8.237516357421875,-0.5050461888313293,1.0213606357574463,0.4432019889354706
1772456324226534100,8.2475341796875,-0.5561504364013672,1.174495816230774,0.015881452709436417
1772456324236553200,8.25755322265625,-0.5681056380271912,1.1323400735855103,-0.33201873302459717
1772456324246571300,8.2675712890625,-0.534334659576416,0.7918774485588074,-0.5431292057037354
1772456324256590000,8.277590087890625,-0.42362120747566223,0.22180093824863434,-0.6373912692070007
1772456324266608000,8.287608154296874,-0.23076176643371582,-0.25597649812698364,-0.6344478130340576
1772456324276627200,8.297627197265625,-0.00348680024035275,-0.4160492420196533,-0.5160950422286987
1772456324286645200,8.307645263671875,0.20162637531757355,-0.39167940616607666,-0.36141905188560486
1772456324296663300,8.317663330078124,0.3553386926651001,-0.3042547404766083,-0.2377234697341919
1772456324306682400,8.327682373046875,0.44883930683135986,-0.2501157522201538,-0.09956663101911545
1772456324316700200,8.3377001953125,0.48793265223503113,-0.24828164279460907,0.019275063648819923
1772456324326719200,8.34771923828125,0.4397803544998169,-0.3082990348339081,0.07337236404418945
1772456324336737300,8.3577373046875,0.2859031856060028,-0.41188135743141174,-0.023551521822810173
1772456324346756000,8.367756103515624,0.10411431640386581,-0.4730202853679657,-0.28219887614250183
1772456324356774400,8.3777744140625,-0.07340667396783829,-0.4411547780036926,-0.5854109525680542
1772456324366793200,8.387793212890625,-0.22166678309440613,-0.3379209041595459,-0.7818907499313354
1772456324376811300,8.397811279296874,-0.32321712374687195,-0.253487765789032,-0.7839019894599915
1772456324386830300,8.407830322265625,-0.3795740306377411,-0.32441091537475586,-0.6139705181121826
1772456324396848000,8.41784814453125,-0.3850595951080322,-0.46022599935531616,-0.3834846317768097
1772456324406867200,8.4278671875,-0.3634622395038605,-0.5043347477912903,-0.15061351656913757
1772456324416885200,8.43788525390625,-0.2919752597808838,-0.4316008985042572,0.038369182497262955
1772456324426904300,8.447904296875,-0.18515616655349731,-0.238618865609169,0.10760752111673355
1772456324436922400,8.45792236328125,-0.03898004814982414,-0.08312594145536423,0.10959663987159729
1772456324446940200,8.467940185546874,0.09286165237426758,0.15294697880744934,0.08620862662792206
1772456324456959200,8.477959228515624,0.22773504257202148,0.27793073654174805,0.03163059800863266
1772456324466977000,8.48797705078125,0.3398762345314026,0.2590411305427551,-0.026852041482925415
1772456324476996000,8.49799609375,0.3730967938899994,0.08262588828802109,-0.10525231063365936
1772456324487014400,8.508014404296874,0.3716435134410858,-0.1816588193178177,-0.16608092188835144
1772456324497033200,8.518033203125,0.3354083001613617,-0.4492945373058319,-0.1862572878599167
1772456324507051300,8.52805126953125,0.27866673469543457,-0.7204120755195618,-0.15777653455734253
1772456324517070300,8.5380703125,0.20847167074680328,-0.9074416160583496,-0.059079524129629135
1772456324527088000,8.548088134765624,0.14159120619297028,-0.9453616738319397,0.07599026709794998
1772456324537107200,8.558107177734374,0.1022816151380539,-0.8862951397895813,0.21099096536636353
1772456324547125200,8.568125244140624,0.022008471190929413,-0.6280795335769653,0.4425261318683624
1772456324557144000,8.57814404296875,-0.06859812885522842,-0.15988916158676147,0.7423107028007507
1772456324567162400,8.588162353515624,-0.14597369730472565,0.46598556637763977,1.0041520595550537
1772456324577180200,8.59818017578125,-0.24015691876411438,1.097253441810608,1.1372497081756592
1772456324587199200,8.60819921875,-0.34998950362205505,1.3075073957443237,0.9502559900283813
1772456324597217300,8.61821728515625,-0.477387934923172,1.255717396736145,0.4531748592853546
1772456324607236000,8.628236083984374,-0.5483995676040649,1.2909616231918335,-0.028768343850970268
1772456324617254100,8.638254150390624,-0.5049301385879517,1.216346263885498,-0.343639999628067
1772456324627273200,8.648273193359374,-0.43020161986351013,0.7888298034667969,-0.4894152581691742
1772456324637291300,8.658291259765624,-0.39447665214538574,0.14656057953834534,-0.543410062789917
1772456324647310300,8.668310302734374,-0.3717057704925537,-0.2549366354942322,-0.6072607040405273
1772456324657328000,8.678328125,-0.27936333417892456,-0.20093199610710144,-0.6273025870323181
1772456324667347200,8.68834716796875,-0.10849320888519287,0.0444016233086586,-0.5094979405403137
1772456324677365200,8.698365234375,0.10287736356258392,0.22645318508148193,-0.2814038395881653
1772456324687384000,8.708384033203124,0.3116384446620941,0.25468507409095764,-0.0665215402841568
1772456324697402000,8.718402099609374,0.5167577862739563,0.3014235496520996,0.080108642578125
1772456324707421200,8.728421142578124,0.6453779339790344,0.4031786322593689,0.18266142904758453
1772456324717439200,8.738439208984374,0.6386726498603821,0.3964208662509918,0.1621588170528412
1772456324727457300,8.748457275390624,0.5090169906616211,0.30214211344718933,0.00784764252603054
1772456324737476400,8.758476318359374,0.3320219814777374,0.07193741202354431,-0.2685442566871643
1772456324747494100,8.768494140625,0.1274346560239792,-0.20676007866859436,-0.5655164122581482
1772456324757513200,8.77851318359375,-0.09636754542589188,-0.4734863042831421,-0.76957768201828
1772456324767531300,8.78853125,-0.2970151901245117,-0.7064464688301086,-0.82938152551651
1772456324777550300,8.79855029296875,-0.4417787790298462,-0.9172029495239258,-0.7521464228630066
1772456324787568400,8.808568359375,-0.516416072845459,-0.9496548175811768,-0.5621597766876221
1772456324797587200,8.818587158203124,-0.49684232473373413,-0.7906233668327332,-0.2915962338447571
1772456324807605200,8.828605224609374,-0.3720509111881256,-0.43127891421318054,-0.003257087664678693
1772456324817624300,8.838624267578124,-0.1874653548002243,0.028908390551805496,0.23037590086460114
1772456324827642000,8.84864208984375,0.05337845906615257,0.3545393645763397,0.3717534840106964
1772456324837661200,8.8586611328125,0.27195608615875244,0.4802802503108978,0.4649076759815216
1772456324847679200,8.86867919921875,0.4462890326976776,0.397722989320755,0.49364787340164185
1772456324857697300,8.878697265625,0.5443655848503113,0.16368360817432404,0.40266549587249756
1772456324867716400,8.88871630859375,0.583058774471283,-0.1301635503768921,0.24041229486465454
1772456324877734100,8.898734130859374,0.5524657368659973,-0.34347182512283325,0.1092689260840416
1772456324887753200,8.908753173828124,0.4588877856731415,-0.4202573597431183,0.08716431260108948
1772456324897771000,8.91877099609375,0.34818366169929504,-0.38764750957489014,0.21798864006996155
1772456324907790000,8.9287900390625,0.2531190514564514,-0.25627586245536804,0.5014383792877197
1772456324917808400,8.938808349609374,0.22921530902385712,-0.10992477089166641,0.8246135115623474
1772456324927827200,8.9488271484375,0.17878305912017822,-0.031760845333337784,1.0415114164352417
1772456324937845800,8.958845703125,0.12339144200086594,0.14139123260974884,1.1076995134353638
1772456324947864800,8.96886474609375,0.05230504646897316,0.3466554284095764,1.0692411661148071
1772456324957882600,8.978882568359374,-0.11438193917274475,0.4983386993408203,0.996803879737854
1772456324967901700,8.988901611328124,-0.28794071078300476,0.5239319801330566,0.8478134870529175
1772456324977919500,8.99891943359375,-0.4243986904621124,0.5520531535148621,0.579235315322876
1772456324987938600,9.0089384765625,-0.5948112607002258,0.5888178944587708,0.21261151134967804
1772456324997956900,9.018956787109374,-0.7877735495567322,0.5090764760971069,-0.26174941658973694
1772456325007974700,9.028974609375,-0.8799358606338501,0.2004205286502838,-0.7362110018730164
1772456325017993700,9.03899365234375,-0.8462710976600647,-0.11466658860445023,-1.0502616167068481
1772456325028011800,9.04901171875,-0.7400705218315125,-0.23949424922466278,-1.1107680797576904
1772456325038030600,9.059030517578124,-0.530142605304718,-0.2917579710483551,-0.8759005069732666
1772456325048048600,9.069048583984374,-0.20931372046470642,-0.37185147404670715,-0.4898100793361664
1772456325058067700,9.079067626953124,0.15630528330802917,-0.47675418853759766,-0.22096610069274902
1772456325068085800,9.089085693359374,0.4362223744392395,-0.5079183578491211,-0.14978857338428497
1772456325078104800,9.099104736328124,0.5885820984840393,-0.3461577296257019,-0.10459765791893005
1772456325088122600,9.10912255859375,0.6465914845466614,-0.12037374079227448,-0.08259511739015579
1772456325098141700,9.1191416015625,0.6044483184814453,0.07792043685913086,-0.13586978614330292
1772456325108159700,9.12915966796875,0.4977681040763855,0.22401688992977142,-0.22719645500183105
1772456325118178600,9.139178466796874,0.37600332498550415,0.24934488534927368,-0.26898038387298584
1772456325128196600,9.149196533203124,0.22833538055419922,0.1115783229470253,-0.23887832462787628
1772456325138215700,9.159215576171874,0.06547722220420837,-0.16216453909873962,-0.17935295403003693
1772456325148233700,9.169233642578124,-0.09763497114181519,-0.5022558569908142,-0.16373232007026672
1772456325158251800,9.179251708984374,-0.22914905846118927,-0.8314207196235657,-0.20938289165496826
1772456325168270600,9.1892705078125,-0.29958391189575195,-0.9840257167816162,-0.2347148209810257
1772456325178288600,9.19928857421875,-0.3375675082206726,-0.870394229888916,-0.20282107591629028
1772456325188307700,9.2093076171875,-0.3192412257194519,-0.5925924181938171,-0.12200877815485
1772456325198325800,9.21932568359375,-0.23093269765377045,-0.21945348381996155,-0.04760139435529709
1772456325208344600,9.229344482421874,-0.10912752151489258,0.09774541854858398,-0.018495531752705574
1772456325218363000,9.23936279296875,0.0023015369661152363,0.3335840404033661,0.007490529213100672
1772456325228381700,9.249381591796874,0.14567188918590546,0.4324757158756256,0.01340414397418499
1772456325238399700,9.259399658203124,0.2836098074913025,0.33483463525772095,-0.010020488873124123
1772456325248418800,9.269418701171874,0.35045087337493896,0.14363917708396912,-0.013124768622219563
1772456325258436600,9.2794365234375,0.3396371006965637,-0.024252625182271004,0.042601075023412704
1772456325268455700,9.28945556640625,0.26332807540893555,-0.19681963324546814,0.15547974407672882
1772456325278473700,9.2994736328125,0.15710844099521637,-0.36648669838905334,0.30130910873413086
1772456325288492800,9.309492919921874,0.059802863746881485,-0.34330135583877563,0.4510243237018585
1772456325298510800,9.3195107421875,-0.002353451680392027,-0.0728650763630867,0.6135951280593872
1772456325308528600,9.329528564453126,-0.04115859046578407,0.259991317987442,0.7774285078048706
1772456325318547700,9.339547607421874,-0.10198891907930374,0.6422452330589294,0.9593220949172974
1772456325328565500,9.3495654296875,-0.19922038912773132,0.9579560160636902,1.0810811519622803
1772456325338584600,9.35958447265625,-0.29588672518730164,0.9753643274307251,1.0148783922195435
1772456325348603000,9.369602783203124,-0.33754077553749084,0.8585530519485474,0.7208404541015625
1772456325358621700,9.37962158203125,-0.3281978666782379,0.7874232530593872,0.2246011644601822
1772456325368639700,9.3896396484375,-0.28076356649398804,0.6459658741950989,-0.3761420249938965
1772456325378658800,9.399658935546874,-0.2999921143054962,0.31572699546813965,-0.8605598211288452
1772456325388676600,9.409676513671876,-0.3387226164340973,-0.06596121937036514,-1.038154125213623
1772456325398695700,9.41969580078125,-0.27535057067871094,-0.285973459482193,-0.9558281302452087
1772456325408713500,9.42971337890625,-0.12865017354488373,-0.2848723530769348,-0.7179085612297058
1772456325418732500,9.439732666015624,-0.020413454622030258,-0.12277425825595856,-0.4336502254009247
1772456325428750800,9.449750732421874,0.054562345147132874,0.08278857171535492,-0.25977978110313416
1772456325438769700,9.459769775390624,0.15727433562278748,0.17700695991516113,-0.22802984714508057
1772456325448787700,9.46978759765625,0.29974430799484253,0.23457488417625427,-0.2424532026052475
1772456325458805800,9.4798056640625,0.4181090295314789,0.2844710648059845,-0.23934689164161682
1772456325468824600,9.489824462890626,0.45569494366645813,0.27248063683509827,-0.25194159150123596
1772456325478842600,9.499842529296876,0.4184839129447937,0.22625108063220978,-0.3165876865386963
1772456325488861700,9.50986181640625,0.34204599261283875,0.22598394751548767,-0.40419793128967285
1772456325498879700,9.519879638671876,0.2598285973072052,0.2220592498779297,-0.4448276460170746
1772456325508898800,9.52989892578125,0.15316419303417206,0.1285407990217209,-0.4601614475250244
1772456325518916600,9.53991650390625,0.024377452209591866,-0.13212993741035461,-0.5021565556526184
1772456325528935700,9.549935791015624,-0.10912307351827621,-0.4854342043399811,-0.5260539054870605
1772456325538953700,9.55995361328125,-0.20509247481822968,-0.8203120827674866,-0.46212631464004517
1772456325548972500,9.56997265625,-0.23179872334003448,-1.1093816757202148,-0.3704075515270233
1772456325558990600,9.579990478515626,-0.21961742639541626,-1.1970049142837524,-0.24945610761642456
1772456325569009700,9.590009765625,-0.20862793922424316,-1.0042012929916382,-0.0871393233537674
1772456325579027700,9.60002783203125,-0.12408508360385895,-0.599702775478363,0.05026993155479431
1772456325589046800,9.610046875,0.07728936523199081,-0.16537785530090332,0.102836012840271
1772456325599064600,9.620064697265626,0.34394022822380066,0.20354798436164856,0.1064658984541893
1772456325609082600,9.63008251953125,0.6127205491065979,0.45119354128837585,0.11554690450429916
1772456325619101700,9.640101806640626,0.8417465686798096,0.5374442934989929,0.09543604403734207
1772456325629119700,9.65011962890625,0.9488683938980103,0.45140743255615234,0.013007625937461853
1772456325639138800,9.660138916015624,0.932822048664093,0.23003192245960236,-0.0875173807144165
1772456325649156900,9.670156982421876,0.8321734666824341,-0.010152934119105339,-0.12390481680631638
1772456325659175700,9.68017578125,0.6554481983184814,-0.08426497876644135,-0.018415141850709915
1772456325669193700,9.69019384765625,0.40144288539886475,-0.005010162480175495,0.2396487444639206
1772456325679212800,9.700212890625,0.16185906529426575,0.07652730494737625,0.6111458539962769
1772456325689230600,9.710230712890626,-0.009621608071029186,0.17410287261009216,0.9115975499153137
1772456325699249700,9.720249755859374,-0.1744403839111328,0.49235087633132935,1.122795820236206
1772456325709267700,9.730267822265626,-0.326672226190567,0.9785611629486084,1.2064818143844604
1772456325719286800,9.740286865234374,-0.4274875223636627,1.2731120586395264,1.0099419355392456
1772456325729304800,9.750304931640626,-0.5171618461608887,1.3650563955307007,0.5459707379341125
1772456325739323600,9.76032373046875,-0.5868567824363708,1.295396327972412,0.0146557642146945
1772456325749341700,9.770341796875,-0.5213186144828796,1.0525108575820923,-0.4444817006587982
1772456325759359500,9.780359375,-0.4137199819087982,0.5272910594940186,-0.7498575448989868
1772456325769378600,9.790378662109376,-0.35270458459854126,-0.14394472539424896,-0.9120917320251465
1772456325779396900,9.80039697265625,-0.3229179382324219,-0.6431974172592163,-0.8957273960113525
1772456325789415700,9.810415771484376,-0.25258129835128784,-0.8112820386886597,-0.65174800157547
1772456325799433700,9.820433837890626,-0.16715297102928162,-0.8542031645774841,-0.24790357053279877
1772456325809452800,9.830452880859376,-0.10673141479492188,-0.8775745630264282,0.07033870369195938
1772456325819470600,9.840470703125,-0.010030168108642101,-0.894848108291626,0.052860911935567856
1772456325829489700,9.85048974609375,0.11671167612075806,-0.7726881504058838,-0.038958702236413956
1772456325839507500,9.860507568359376,0.20693770051002502,-0.5047714710235596,-0.07455717772245407
1772456325849526500,9.870526611328126,0.22023046016693115,-0.19160740077495575,-0.06981494277715683
1772456325859544800,9.880544921875,0.19446304440498352,0.043364353477954865,-0.011942584067583084
1772456325869563600,9.890563720703126,0.11472903937101364,0.17305557429790497,0.06703760474920273
1772456325879581700,9.900581787109376,-0.000474511063657701,0.15883508324623108,0.11577051877975464
1772456325889600800,9.910600830078126,-0.12544867396354675,-0.06253965198993683,0.08714819699525833
1772456325899618600,9.92061865234375,-0.2206990271806717,-0.37972959876060486,-0.0064920117147266865
1772456325909637600,9.9306376953125,-0.27218684554100037,-0.6104224920272827,-0.10779354721307755
1772456325919655700,9.94065576171875,-0.2889772951602936,-0.6906137466430664,-0.16324669122695923
1772456325929673700,9.950673828125,-0.2328702211380005,-0.5944861173629761,-0.18667936325073242
1772456325939692000,9.960692138671876,-0.12226354330778122,-0.4386480152606964,-0.19238705933094025
1772456325949709800,9.970709716796875,-0.030824050307273865,-0.2476479709148407,-0.1777876615524292
1772456325959729000,9.98072900390625,0.021952612325549126,0.005668196827173233,-0.12285064160823822
1772456325969747000,9.990746826171875,0.06396310031414032,0.2799507975578308,-0.09368192404508591
1772456325979766000,10.00076611328125,0.0888466089963913,0.5284242630004883,-0.08371318131685257
1772456325989784000,10.0107841796875,0.14132413268089294,0.6112188696861267,-0.021223407238721848
1772456325999803000,10.020802978515626,0.19477377831935883,0.4735669791698456,0.05210540071129799
1772456326009821000,10.030821044921876,0.23409245908260345,0.10091132670640945,0.12362125515937805
1772456326019840000,10.040840087890626,0.27125129103660583,-0.3272187113761902,0.1905669867992401
1772456326029857800,10.05085791015625,0.3112733066082001,-0.6361880898475647,0.2972223162651062
1772456326039876900,10.060876953125,0.3011793792247772,-0.8330665826797485,0.43946734070777893
1772456326049895200,10.070895263671876,0.2608594000339508,-0.8633855581283569,0.5986750721931458
1772456326059914000,10.0809140625,0.1708672046661377,-0.5682482123374939,0.7990055084228516
1772456326069932000,10.09093212890625,0.04811934381723404,0.12573577463626862,1.0497660636901855
1772456326079949800,10.10094970703125,-0.08937486261129379,0.9368219971656799,1.1691256761550903
1772456326089969000,10.110968994140626,-0.2672804594039917,1.436969518661499,0.971478283405304
1772456326099987000,10.120987060546875,-0.5260353088378906,1.677783489227295,0.4602711796760559
1772456326110005800,10.131005859375,-0.7524186968803406,1.6193351745605469,-0.13398292660713196
1772456326120024000,10.141024169921875,-0.7909187078475952,1.2099847793579102,-0.5876438617706299
1772456326130043100,10.151043212890626,-0.7971693873405457,0.523267388343811,-0.8718071579933167
1772456326140061000,10.16106103515625,-0.7753863334655762,-0.19717013835906982,-0.9923484921455383
1772456326150080000,10.171080078125,-0.5801799893379211,-0.383252888917923,-0.9152955412864685
1772456326160097800,10.181097900390625,-0.19957886636257172,-0.09234409034252167,-0.5842457413673401
1772456326170116900,10.191116943359376,0.16729527711868286,0.1222447007894516,-0.17406846582889557
1772456326180135000,10.201135009765625,0.3740265965461731,0.02940317429602146,0.11335453391075134
1772456326190153700,10.21115380859375,0.5145965218544006,-0.10632801800966263,0.29906418919563293
1772456326200172000,10.221172119140626,0.5795187950134277,-0.26747214794158936,0.3998104929924011
1772456326210191000,10.231191162109376,0.4800672233104706,-0.4236087203025818,0.34326109290122986
1772456326220209000,10.241208984375,0.23411180078983307,-0.4644900858402252,0.12742069363594055
1772456326230227000,10.25122705078125,0.002094751689583063,-0.29240530729293823,-0.11295114457607269
1772456326240246000,10.26124609375,-0.17245973646640778,-0.10094905644655228,-0.26188042759895325
1772456326250263800,10.271263916015625,-0.27577659487724304,-0.0027597909793257713,-0.24377809464931488
1772456326260283000,10.281282958984375,-0.30249926447868347,-0.08045884966850281,-0.12296459078788757
1772456326270301000,10.291301025390625,-0.2750748097896576,-0.23812469840049744,0.011721438728272915
1772456326280320000,10.301320068359376,-0.19365081191062927,-0.39500752091407776,0.11224830895662308
1772456326290338000,10.311338134765625,-0.0897551104426384,-0.4232669472694397,0.1665511578321457
1772456326300356900,10.32135693359375,-0.015375683084130287,-0.27610278129577637,0.20451317727565765
1772456326310375000,10.331375,0.02160308137536049,-0.07324981689453125,0.2894597351551056
1772456326320393000,10.34139306640625,0.05325661599636078,0.03084143064916134,0.3759312331676483
1772456326330412000,10.351412109375,0.0897960364818573,0.02375970035791397,0.3974681794643402
1772456326340430000,10.36143017578125,0.09461662173271179,-0.07903672009706497,0.33391156792640686
1772456326350449000,10.371448974609375,0.08904103934764862,-0.2288094460964203,0.18401238322257996
1772456326360467000,10.381467041015625,0.10240451246500015,-0.34080708026885986,0.03234376385807991
1772456326370486000,10.391486083984375,0.12499114871025085,-0.43035176396369934,-0.030215129256248474
1772456326380503800,10.40150390625,0.14614996314048767,-0.4427911341190338,0.009778358973562717
1772456326390523000,10.41152294921875,0.16388753056526184,-0.4904635548591614,0.11756176501512527
1772456326400541000,10.421541015625,0.16167311370372772,-0.5471904873847961,0.26272428035736084
1772456326410560000,10.43156005859375,0.12243036925792694,-0.5284870862960815,0.3982411026954651
1772456326420578000,10.441578125,0.06584059447050095,-0.36376312375068665,0.5533563494682312
1772456326430596900,10.451596923828125,0.04131452366709709,-0.05745653063058853,0.794217586517334
1772456326440615000,10.461614990234375,0.018528519198298454,0.29820144176483154,1.0718766450881958
1772456326450634000,10.471634033203125,-0.024348227307200432,0.6234793066978455,1.3084375858306885
1772456326460651800,10.48165185546875,-0.07454588264226913,0.9246854782104492,1.4216736555099487
1772456326470670000,10.491670166015625,-0.1072751134634018,0.9956032037734985,1.2953256368637085
1772456326480689200,10.501689208984375,-0.1777636557817459,0.8326640725135803,0.8762149214744568
1772456326490707000,10.51170703125,-0.29829466342926025,0.67702716588974,0.2809026837348938
1772456326500726000,10.52172607421875,-0.3633274435997009,0.5654902458190918,-0.2667313814163208
1772456326510743800,10.531743896484375,-0.38852253556251526,0.440329909324646,-0.5587264895439148
1772456326520763000,10.541762939453125,-0.37203916907310486,0.3023933470249176,-0.5671625733375549
1772456326530781000,10.551781005859375,-0.2710696756839752,0.1748407781124115,-0.46137526631355286
1772456326540799700,10.5617998046875,-0.1012183353304863,0.18048614263534546,-0.3324287533760071
1772456326550818000,10.571818115234375,0.0929662436246872,0.25687503814697266,-0.17932146787643433
1772456326560837000,10.581837158203125,0.27644339203834534,0.2540270686149597,-0.03360527753829956
1772456326570855000,10.59185498046875,0.37758252024650574,0.20882262289524078,0.06756357848644257
1772456326580874000,10.6018740234375,0.39266106486320496,0.17482417821884155,0.04968443885445595
1772456326590891800,10.611891845703125,0.40046074986457825,0.12540291249752045,-0.06664474308490753
1772456326600910800,10.621910888671875,0.4011033773422241,0.11032329499721527,-0.1613970845937729
1772456326610929000,10.631928955078125,0.38709303736686707,0.06453023850917816,-0.22494010627269745
1772456326620947700,10.64194775390625,0.32300856709480286,-0.020603561773896217,-0.2640848457813263
1772456326630966000,10.651966064453125,0.19910828769207,-0.14173202216625214,-0.35148438811302185
1772456326640985000,10.661985107421875,0.06362741440534592,-0.19805601239204407,-0.5169196724891663
1772456326651003000,10.6720029296875,-0.05357043817639351,-0.17752309143543243,-0.6324808597564697
1772456326661021000,10.68202099609375,-0.15067008137702942,-0.09053491801023483,-0.5734654664993286
1772456326671040000,10.6920400390625,-0.2636004090309143,-0.07656390964984894,-0.38854125142097473
1772456326681058000,10.70205810546875,-0.3865489661693573,-0.17305611073970795,-0.21103546023368835
1772456326691077000,10.7120771484375,-0.4446712136268616,-0.28379520773887634,-0.05139395594596863
1772456326701095000,10.722094970703125,-0.4817517399787903,-0.3302024006843567,0.09335950762033463
1772456326711114000,10.732114013671875,-0.44575199484825134,-0.2643558382987976,0.18225067853927612
1772456326721132000,10.742132080078125,-0.38737043738365173,-0.1945277452468872,0.20556718111038208
1772456326731150800,10.75215087890625,-0.3027421534061432,-0.12093596905469894,0.23814328014850616
1772456326741169000,10.7621689453125,-0.2055453062057495,-0.01153783593326807,0.2875140309333801
1772456326751188000,10.77218798828125,-0.06221472844481468,0.08589565753936768,0.3462443947792053
1772456326761206000,10.7822060546875,0.033739496022462845,0.21350687742233276,0.3714786469936371
1772456326771225000,10.79222509765625,0.07472983002662659,0.30576837062835693,0.30353742837905884
1772456326781243000,10.802242919921875,0.07173243910074234,0.3072299063205719,0.24692822992801666
1772456326791262000,10.812261962890625,0.06849509477615356,0.2728674113750458,0.25654008984565735
1772456326801280000,10.822280029296875,0.0692674070596695,0.1753605604171753,0.27108174562454224
1772456326811298800,10.832298828125,0.06437279284000397,0.06433970481157303,0.2713388502597809
1772456326821316900,10.84231689453125,0.07762947678565979,-0.026464499533176422,0.2296939343214035
1772456326831335000,10.8523349609375,0.1001482829451561,-0.037118829786777496,0.16029159724712372
1772456326841354000,10.86235400390625,0.12235185503959656,0.05698157101869583,0.06437386572360992
1772456326851372000,10.8723720703125,0.13601991534233093,0.1611076295375824,-0.05073895677924156
1772456326861390800,10.882390869140625,0.11989607661962509,0.22744110226631165,-0.21411029994487762
1772456326871409000,10.892408935546875,0.1455623209476471,0.369282066822052,-0.36878442764282227
1772456326881428000,10.902427978515625,0.22841165959835052,0.5153242349624634,-0.508510410785675
1772456326891445800,10.91244580078125,0.3471054434776306,0.5513783097267151,-0.5965628027915955
1772456326901464800,10.92246484375,0.45170456171035767,0.7006135582923889,-0.5950349569320679
1772456326911483100,10.932483154296875,0.5826860666275024,0.9357278347015381,-0.5178832411766052
1772456326921502000,10.942501953125,0.5486679077148438,0.9102368354797363,0.07626322656869888
1772456326931520000,10.95252001953125,0.4277220070362091,0.33182889223098755,0.3768560588359833
1772456326941539300,10.962539306640625,0.40709155797958374,-0.009585710242390633,0.4363662600517273
1772456326951557400,10.972557373046875,0.36208459734916687,-0.10570620745420456,0.192826509475708
1772456326961576200,10.982576171875,0.2691759765148163,-0.1521565169095993,-0.1632929891347885
1772456326971594200,10.99259423828125,0.16130565106868744,-0.16433963179588318,-0.3221820890903473
1772456326981613300,11.00261328125,0.04315372183918953,-0.22939825057983398,-0.31270816922187805
1772456326991631400,11.01263134765625,-0.06811995804309845,-0.18295642733573914,-0.23683474957942963
1772456327001649400,11.0226494140625,-0.15988343954086304,-0.12597143650054932,-0.2005734145641327
1772456327011668200,11.032668212890625,-0.2497086077928543,-0.07340715080499649,-0.08762666583061218
