time,seconds_elapsed,z,y,x
1772456316043958300,0.064958251953125,0.0746699795126915,-0.053459230810403824,-0.11066233366727829
1772456316053977300,0.074977294921875,0.0712888240814209,-0.1079094186425209,-0.09364286810159683
1772456316063995100,0.0849951171875,0.06457047164440155,-0.12792201340198517,-0.06923819333314896
1772456316074014200,0.09501416015625,0.05024106800556183,-0.09700510650873184,-0.0487813875079155
1772456316084032300,0.1050322265625,0.042574092745780945,-0.0450095534324646,-0.03741821274161339
1772456316094050000,0.115050048828125,0.045160021632909775,0.0041366880759596825,-0.02966415137052536
1772456316104069000,0.125069091796875,0.037224333733320236,0.0215953066945076,-0.04139990359544754
1772456316114087200,0.135087158203125,0.03272172808647156,0.007871771231293678,-0.07237645983695984
1772456316124106200,0.145106201171875,0.029138710349798203,-0.00202267081476748,-0.12828126549720764
1772456316134124300,0.155124267578125,0.030241258442401886,0.01429504994302988,-0.18554696440696716
1772456316144143000,0.16514306640625,0.03652631863951683,0.010025469586253166,-0.22059229016304016
1772456316154161200,0.1751611328125,0.05459000915288925,0.003771835006773472,-0.22526374459266663
1772456316164180200,0.18518017578125,0.06709115207195282,0.018123609945178032,-0.18385079503059387
1772456316174198300,0.1951982421875,0.08138646930456161,0.025002555921673775,-0.1363450586795807
1772456316184217000,0.205217041015625,0.09674385190010071,0.028306206688284874,-0.11256595700979233
1772456316194235100,0.215235107421875,0.1093059852719307,0.04899763688445091,-0.10812700539827347
1772456316204254200,0.225254150390625,0.1259573996067047,0.06042259559035301,-0.10599780827760696
1772456316214272300,0.235272216796875,0.13130609691143036,0.04470834881067276,-0.08890058100223541
1772456316224290000,0.2452900390625,0.11691064387559891,0.01251206360757351,-0.0742153748869896
1772456316234309000,0.25530908203125,0.0933629721403122,0.008383364416658878,-0.07202492654323578
1772456316244327400,0.265327392578125,0.08081282675266266,-0.00794554129242897,-0.07346516102552414
1772456316254346200,0.27534619140625,0.09255816042423248,-0.0420214869081974,-0.05500146746635437
1772456316264364300,0.2853642578125,0.10527156293392181,-0.0415775366127491,-0.006719155237078667
1772456316274383400,0.29538330078125,0.12362659722566605,-0.017303090542554855,0.0453653521835804
1772456316284401200,0.305401123046875,0.15515203773975372,0.022578014060854912,0.0735384002327919
1772456316294420200,0.315420166015625,0.18943651020526886,0.049302034080028534,0.060987986624240875
1772456316304438000,0.32543798828125,0.23291687667369843,0.013471866957843304,0.005434446502476931
1772456316314457000,0.33545703125,0.26748231053352356,-0.03683098405599594,-0.04523272439837456
1772456316324475400,0.345475341796875,0.3153235912322998,-0.11642488092184067,-0.05336042493581772
1772456316334494200,0.355494140625,0.3522818684577942,-0.19608242809772491,-0.008934905752539635
1772456316344512300,0.36551220703125,0.37203481793403625,-0.268909752368927,0.1175742968916893
1772456316354530000,0.375530029296875,0.39524826407432556,-0.28195899724960327,0.3350166082382202
1772456316364549000,0.385549072265625,0.41172870993614197,-0.256096214056015,0.6288673877716064
1772456316374567200,0.395567138671875,0.4140501618385315,-0.21132129430770874,0.9149428606033325
1772456316384586000,0.4055859375,0.39312198758125305,-0.19612742960453033,1.0706501007080078
1772456316394604300,0.415604248046875,0.3279126286506653,-0.21582257747650146,1.0109540224075317
1772456316404623400,0.425623291015625,0.24462732672691345,-0.2843720614910126,0.703606367111206
1772456316414641200,0.43564111328125,0.17987868189811707,-0.3963595926761627,0.26155784726142883
1772456316424660200,0.44566015625,0.15091894567012787,-0.48524898290634155,-0.12756673991680145
1772456316434678000,0.455677978515625,0.13238947093486786,-0.4863656461238861,-0.26988741755485535
1772456316444697000,0.465697021484375,0.11627627909183502,-0.36595773696899414,-0.09886053204536438
1772456316454715100,0.475715087890625,0.13706225156784058,-0.26592355966567993,0.3098992705345154
1772456316464734000,0.48573388671875,0.13351678848266602,-0.2609410583972931,0.7620004415512085
1772456316474752300,0.495752197265625,0.09917878359556198,-0.3549293279647827,1.0958318710327148
1772456316484770300,0.505770263671875,0.05282406508922577,-0.4880221486091614,1.1831964254379272
1772456316494789000,0.5157890625,-0.03170653060078621,-0.47429752349853516,1.0016577243804932
1772456316504807200,0.52580712890625,-0.14413774013519287,-0.259647011756897,0.6198413968086243
1772456316514826200,0.535826171875,-0.2084333598613739,0.0000798948312876746,0.12070244550704956
1772456316524844300,0.54584423828125,-0.21925592422485352,0.16436125338077545,-0.3566470742225647
1772456316534863400,0.55586328125,-0.17778784036636353,0.27992191910743713,-0.6906279921531677
1772456316544881200,0.565881103515625,-0.0741938054561615,0.33167514204978943,-0.819875180721283
1772456316554900200,0.575900146484375,0.030705714598298073,0.2095116823911667,-0.8077623248100281
1772456316564918300,0.585918212890625,0.11430500447750092,0.027459854260087013,-0.7519027590751648
1772456316574937000,0.59593701171875,0.1589566320180893,-0.1596226841211319,-0.667894184589386
1772456316584955100,0.605955078125,0.14939507842063904,-0.3529343605041504,-0.5664655566215515
1772456316594974200,0.61597412109375,0.09430573135614395,-0.45377200841903687,-0.5196687579154968
1772456316604992300,0.6259921875,0.04669240489602089,-0.3246622383594513,-0.5763682723045349
1772456316615010300,0.63601025390625,0.07148537039756775,0.04153678938746452,-0.7187536358833313
1772456316625029000,0.646029052734375,0.18422016501426697,0.4562397003173828,-0.8214613795280457
1772456316635047200,0.656047119140625,0.32940906286239624,1.00248122215271,-0.7844108939170837
1772456316645066200,0.666066162109375,0.4741382896900177,1.6805299520492554,-0.6114370226860046
1772456316655084000,0.676083984375,0.5633930563926697,2.240670919418335,-0.35674425959587097
1772456316665103000,0.68610302734375,0.6096644401550293,2.524806022644043,-0.12448626756668091
1772456316675121400,0.696121337890625,0.6013063788414001,2.4057435989379883,0.02533411793410778
1772456316685140200,0.70614013671875,0.556056559085846,1.9302103519439697,0.19840869307518005
1772456316695158300,0.716158203125,0.4275433421134949,1.2986657619476318,0.38681483268737793
1772456316705177300,0.72617724609375,0.2895947992801666,0.6952232718467712,0.5405612587928772
1772456316715195100,0.736195068359375,0.20355525612831116,0.26091495156288147,0.6549807786941528
1772456316725214200,0.746214111328125,0.17340560257434845,-0.13246989250183105,0.7375736236572266
1772456316735232000,0.75623193359375,0.12577684223651886,-0.5554776191711426,0.798055112361908
1772456316745250300,0.766250244140625,0.06501814723014832,-0.8235162496566772,0.80060213804245
1772456316755269400,0.776269287109375,-0.040638238191604614,-0.9088468551635742,0.4878082871437073
1772456316765287200,0.786287109375,-0.067824587225914,-0.9811170697212219,0.21282358467578888
1772456316775306200,0.79630615234375,-0.09212753176689148,-1.0004931688308716,0.0325976237654686
1772456316785324000,0.806323974609375,-0.11476705968379974,-1.0677486658096313,-0.1327947974205017
1772456316795343000,0.816343017578125,-0.09758354723453522,-1.1317803859710693,-0.23791402578353882
1772456316805361200,0.826361083984375,-0.03496916964650154,-1.1258190870285034,-0.23612438142299652
1772456316815380200,0.836380126953125,0.07101878523826599,-0.9600985646247864,0.014336062595248222
1772456316825398300,0.846398193359375,0.17755001783370972,-0.7176896929740906,0.5393995642662048
1772456316835417300,0.856417236328125,0.2827496826648712,-0.3210059702396393,1.1490237712860107
1772456316845435100,0.86643505859375,0.3503369688987732,0.2784169912338257,1.6953891515731812
1772456316855454200,0.8764541015625,0.40103238821029663,0.9250026345252991,2.0924980640411377
1772456316865472000,0.886471923828125,0.4305873513221741,1.6025584936141968,2.2580373287200928
1772456316875490300,0.896490234375,0.3481103181838989,2.1470582485198975,2.1715657711029053
1772456316885509400,0.90650927734375,0.18065392971038818,2.425089120864868,1.8698631525039673
1772456316895527200,0.916527099609375,-0.024955950677394867,2.1203808784484863,1.3982748985290527
1772456316905546200,0.926546142578125,-0.19764544069766998,1.21213698387146,0.765485405921936
1772456316915564300,0.936564208984375,-0.33094462752342224,0.2715311050415039,0.1382196545600891
1772456316925584100,0.946584228515625,-0.36672288179397583,-0.3680478036403656,-0.27083736658096313
1772456316935602200,0.956602294921875,-0.3667351305484772,-0.6765267848968506,-0.30465149879455566
1772456316945621200,0.966621337890625,-0.3556065857410431,-0.7076721787452698,-0.008257131092250347
1772456316955639000,0.97663916015625,-0.34368494153022766,-0.5246413946151733,0.360066294670105
1772456316965658000,0.986658203125,-0.25944754481315613,-0.49572640657424927,0.5311525464057922
1772456316975676400,0.996676513671875,-0.1776925027370453,-0.18107818067073822,0.4112338721752167
1772456316985695200,1.0066953125,-0.07811051607131958,0.28589195013046265,0.15178713202476501
1772456316995713300,1.01671337890625,0.10404863953590393,0.4625348746776581,-0.18464255332946777
1772456317005731000,1.02673095703125,0.35484570264816284,0.45219436287879944,-0.5343360900878906
1772456317015750100,1.036750244140625,0.5930241942405701,0.4652734100818634,-0.7456302642822266
1772456317025768200,1.046768310546875,0.766830325126648,0.5285823345184326,-0.7873542308807373
1772456317035787000,1.056787109375,0.8521681427955627,0.5763213634490967,-0.6375187039375305
1772456317045805300,1.066805419921875,0.8078470230102539,0.5804924368858337,-0.34184762835502625
1772456317055824400,1.076824462890625,0.7227243781089783,0.663716733455658,-0.008039550855755806
1772456317065842200,1.08684228515625,0.664170503616333,0.6858150959014893,0.2268989235162735
1772456317075861200,1.096861328125,0.6174099445343018,0.5270880460739136,0.26995372772216797
1772456317085879000,1.106879150390625,0.47765684127807617,0.19371673464775085,0.1708279401063919
1772456317095898000,1.116898193359375,0.24309787154197693,-0.2920430302619934,0.07183131575584412
1772456317105916200,1.126916259765625,0.006994260009378195,-0.8887514472007751,0.04375360533595085
1772456317115935000,1.13693505859375,-0.14456863701343536,-1.4383429288864136,-0.03777933493256569
1772456317125953300,1.146953369140625,-0.15148939192295074,-1.9009249210357666,-0.20611561834812164
1772456317135971300,1.156971435546875,-0.06667356938123703,-2.188971996307373,-0.3855311870574951
1772456317145990100,1.166990234375,0.0629161149263382,-2.3121891021728516,-0.5954391360282898
1772456317156008200,1.17700830078125,0.16166213154792786,-2.173823356628418,-0.6337697505950928
1772456317166027300,1.18702734375,0.21296952664852142,-1.8029240369796753,-0.526451826095581
1772456317176045000,1.197045166015625,0.24979917705059052,-1.327644944190979,-0.3551575541496277
1772456317186064100,1.207064208984375,0.28499656915664673,-0.9166792035102844,-0.17618274688720703
1772456317196082200,1.217082275390625,0.30540597438812256,-0.586900532245636,-0.0022034994326531887
1772456317206101200,1.227101318359375,0.3116993010044098,-0.2599295675754547,0.19127649068832397
1772456317216119300,1.237119384765625,0.32231733202934265,0.03990427404642105,0.39546504616737366
1772456317226138000,1.24713818359375,0.34971752762794495,0.4021437168121338,0.5971068143844604
1772456317236156200,1.25715625,0.4139004945755005,0.7022614479064941,0.8273496031761169
1772456317246175200,1.26717529296875,0.5622867941856384,0.8953302502632141,1.0209119319915771
1772456317256193300,1.277193359375,0.6974150538444519,0.956682562828064,1.136228084564209
1772456317266211300,1.28721142578125,0.7116448283195496,0.9893829822540283,1.1205165386199951
1772456317276230100,1.297230224609375,0.5286768674850464,0.8923587203025818,0.9901148080825806
1772456317286248200,1.307248291015625,0.1986832618713379,0.7150909900665283,0.8068997263908386
1772456317296267300,1.317267333984375,-0.189820796251297,0.2802191376686096,0.5499459505081177
1772456317306285000,1.32728515625,-0.5611144304275513,0.052026450634002686,0.2047203928232193
1772456317316304100,1.33730419921875,-0.9643596410751343,0.21752193570137024,-0.11478277295827866
1772456317326322200,1.347322265625,-1.2554740905761719,0.467847615480423,-0.26545509696006775
1772456317336341200,1.35734130859375,-1.4772412776947021,0.5253111720085144,-0.14582085609436035
1772456317346359300,1.367359375,-1.5647532939910889,0.3108825087547302,0.10788252204656601
1772456317356378000,1.377378173828125,-1.4528577327728271,-0.0023465112317353487,0.3451957404613495
1772456317366396200,1.387396240234375,-1.3010714054107666,-0.12385403364896774,0.45366549491882324
1772456317376415200,1.397415283203125,-1.0720951557159424,-0.0749187171459198,0.30946916341781616
1772456317386433000,1.40743310546875,-0.6538774371147156,-0.13370878994464874,-0.136227086186409
1772456317396451300,1.417451416015625,-0.12671028077602386,-0.3261650502681732,-0.6764786243438721
1772456317406470400,1.427470458984375,0.27049994468688965,-0.6050171852111816,-1.1536425352096558
1772456317416488200,1.43748828125,0.5523537397384644,-1.1125046014785767,-1.343422770500183
1772456317426507300,1.44750732421875,0.7716661095619202,-1.4587416648864746,-1.2872719764709473
1772456317436525000,1.457525146484375,0.9908386468887329,-1.021079182624817,-1.1460026502609253
1772456317446544100,1.467544189453125,1.1444780826568604,-0.1826627552509308,-0.8248270750045776
1772456317456562200,1.477562255859375,1.0682882070541382,0.9486291408538818,-0.5498690009117126
1772456317466581000,1.4875810546875,0.8308447599411011,1.921576976776123,-0.2855585217475891
1772456317476599300,1.497599365234375,0.45296695828437805,2.2038626670837402,0.09662853926420212
1772456317486618400,1.507618408203125,0.018992066383361816,2.054351568222046,0.46619725227355957
1772456317496636200,1.51763623046875,-0.36133795976638794,1.5846372842788696,0.6541948914527893
1772456317506655200,1.5276552734375,-0.6272876262664795,0.7945224046707153,0.679177463054657
1772456317516673000,1.537673095703125,-0.7311447858810425,-0.062985360622406,0.5288252234458923
1772456317526691000,1.547691162109375,-0.7341602444648743,-0.9119374752044678,0.3175819516181946
1772456317536710100,1.557710205078125,-0.5092265009880066,-1.652380347251892,0.12666580080986023
1772456317546728200,1.567728271484375,-0.12528735399246216,-1.8499935865402222,-0.2753828465938568
1772456317556747300,1.577747314453125,0.19201098382472992,-1.637265920639038,-0.6285129189491272
1772456317566765300,1.587765380859375,0.39713671803474426,-1.2123832702636719,-0.9218055605888367
1772456317576784100,1.5977841796875,0.45839953422546387,-0.49929875135421753,-1.1093014478683472
1772456317586802200,1.60780224609375,0.4671509563922882,0.2821272909641266,-1.0024950504302979
1772456317596821200,1.6178212890625,0.4522377848625183,0.7166851162910461,-0.6037705540657043
1772456317606839300,1.62783935546875,0.32785776257514954,0.42888158559799194,-0.04832412302494049
1772456317616858400,1.6378583984375,0.233830064535141,-0.15778696537017822,0.5414198637008667
1772456317626876200,1.647876220703125,0.3481883406639099,-0.6947766542434692,1.1753501892089844
1772456317636895200,1.657895263671875,0.4067874550819397,-0.6402830481529236,1.5986191034317017
1772456317646913300,1.667913330078125,0.37048670649528503,-0.20116692781448364,1.7372201681137085
1772456317656931000,1.67793115234375,0.29454055428504944,0.3212512731552124,1.7443207502365112
1772456317666950100,1.6879501953125,0.20832763612270355,0.9759619832038879,1.6249639987945557
1772456317676968200,1.69796826171875,0.018182998523116112,1.416051983833313,1.4573466777801514
1772456317686987300,1.7079873046875,-0.19637617468833923,1.5732269287109375,1.2226245403289795
1772456317697005300,1.71800537109375,-0.40832170844078064,1.2528806924819946,0.8467121124267578
1772456317707024100,1.728024169921875,-0.624496340751648,0.6059514284133911,0.44761425256729126
1772456317717042200,1.738042236328125,-0.7115045189857483,0.022189458832144737,0.18294984102249146
1772456317727061200,1.748061279296875,-0.7498961091041565,-0.28064605593681335,0.07535866647958755
1772456317737079000,1.7580791015625,-0.813001275062561,-0.4988446831703186,-0.038303181529045105
1772456317747098000,1.76809814453125,-0.8436846137046814,-0.5483075976371765,-0.25021249055862427
1772456317757116200,1.7781162109375,-0.8392153382301331,-0.28427034616470337,-0.4754834473133087
1772456317767135200,1.78813525390625,-0.759433925151825,0.2178519070148468,-0.649301290512085
1772456317777153300,1.7981533203125,-0.5636956095695496,0.4766938388347626,-0.706079363822937
1772456317787171000,1.808171142578125,-0.2794119417667389,0.31288468837738037,-0.7178798317909241
1772456317797190100,1.818190185546875,0.057467021048069,0.015845010057091713,-0.7617426514625549
1772456317807208200,1.828208251953125,0.33101654052734375,-0.2510599195957184,-0.7700908184051514
1772456317817227000,1.83822705078125,0.5402960181236267,-0.4200518727302551,-0.6739494204521179
1772456317827245300,1.848245361328125,0.6573278307914734,-0.5111554265022278,-0.4791412949562073
1772456317837264400,1.858264404296875,0.6990475654602051,-0.5084720253944397,-0.3243919312953949
1772456317847282200,1.8682822265625,0.6388145685195923,-0.40783995389938354,-0.31374886631965637
1772456317857301200,1.87830126953125,0.49111485481262207,-0.22902892529964447,-0.4378047585487366
1772456317867319000,1.888319091796875,0.2786790430545807,0.0134452348574996,-0.5893045663833618
1772456317877338000,1.898338134765625,0.04729880765080452,0.2945006191730499,-0.6493407487869263
1772456317887356200,1.908356201171875,-0.1521461308002472,0.4204771816730499,-0.5564539432525635
1772456317897374200,1.918374267578125,-0.3072057366371155,0.35256657004356384,-0.3776721954345703
1772456317907393300,1.928393310546875,-0.4007894992828369,0.16050685942173004,-0.21115830540657043
1772456317917411000,1.9384111328125,-0.42035362124443054,-0.07401084154844284,-0.07738932967185974
1772456317927429600,1.9484296875,-0.38734158873558044,-0.3437342047691345,0.0036637107841670513
1772456317937447400,1.958447509765625,-0.29633498191833496,-0.6199508905410767,0.002650644164532423
1772456317947466500,1.968466552734375,-0.14018107950687408,-0.8943142294883728,-0.07261055707931519
1772456317957484500,1.978484619140625,-0.00757988914847374,-0.9334638118743896,-0.22046738862991333
1772456317967503600,1.988503662109375,0.04686897248029709,-0.7784292101860046,-0.376947820186615
1772456317977521700,1.998521728515625,0.07422762364149094,-0.4924083650112152,-0.4634923040866852
1772456317987540500,2.00854052734375,0.08076968044042587,-0.08246558159589767,-0.3927462100982666
1772456317997558500,2.01855859375,0.10027733445167542,0.35102006793022156,-0.16286508738994598
1772456318007577600,2.02857763671875,0.1182081326842308,0.6282958984375,0.1703845113515854
1772456318017595600,2.038595703125,0.12899979948997498,0.46062353253364563,0.5595479607582092
1772456318027613700,2.04861376953125,0.15072134137153625,0.14852742850780487,0.957882285118103
1772456318037632500,2.058632568359375,0.23741894960403442,-0.12399198859930038,1.224177360534668
1772456318047650600,2.068650634765625,0.33477506041526794,-0.28832554817199707,1.3153575658798218
1772456318057669600,2.078669677734375,0.34982937574386597,-0.3254159092903137,1.2903374433517456
1772456318067687400,2.0886875,0.27969130873680115,-0.18191280961036682,1.135096788406372
1772456318077706500,2.09870654296875,0.08338277041912079,0.17012912034988403,0.9078226089477539
1772456318087724500,2.108724609375,-0.21478873491287231,0.6379042863845825,0.6383349299430847
1772456318097743600,2.11874365234375,-0.53370600938797,1.1228035688400269,0.3837900161743164
1772456318107761700,2.12876171875,-0.779977023601532,1.4938253164291382,0.21040037274360657
1772456318117780500,2.138780517578125,-0.8790583610534668,1.8723018169403076,0.14454174041748047
1772456318127798500,2.148798583984375,-0.8185817003250122,1.860019326210022,0.21812860667705536
1772456318137816600,2.158816650390625,-0.7596011757850647,1.4070111513137817,0.33909469842910767
1772456318147835400,2.16883544921875,-0.6139944195747375,0.7956047058105469,0.18991774320602417
1772456318157853700,2.178853759765625,-0.22294999659061432,0.23304630815982819,-0.08730214834213257
1772456318167872800,2.188872802734375,0.1888391524553299,-0.17844989895820618,-0.20203299820423126
1772456318177890600,2.198890625,0.4408687353134155,-0.3300868272781372,-0.3046818673610687
1772456318187909600,2.20890966796875,0.5622262954711914,-0.41574206948280334,-0.36739373207092285
1772456318197927400,2.218927490234375,0.6299486756324768,-0.39302000403404236,-0.33611011505126953
1772456318207946500,2.228946533203125,0.6346307396888733,-0.44198086857795715,-0.25985607504844666
1772456318217964500,2.238964599609375,0.5451948642730713,-0.6063682436943054,-0.17100051045417786
1772456318227983400,2.2489833984375,0.40752941370010376,-0.8102552890777588,-0.08209593594074249
1772456318238001700,2.259001708984375,0.1768466830253601,-0.8221710920333862,-0.26957395672798157
1772456318248019500,2.26901953125,-0.06367085129022598,-0.8829913139343262,-0.6266686916351318
1772456318258038500,2.27903857421875,-0.20482265949249268,-0.8635435700416565,-0.7684521675109863
1772456318268056600,2.289056640625,-0.24576103687286377,-0.8140830397605896,-0.5455975532531738
1772456318278075400,2.299075439453125,-0.2292771339416504,-0.5456745028495789,-0.1593763381242752
1772456318288093400,2.309093505859375,-0.14264823496341705,-0.23930047452449799,0.22739773988723755
1772456318298112500,2.319112548828125,-0.07965834438800812,0.03833939880132675,0.4117409586906433
1772456318308130600,2.329130615234375,-0.04300951957702637,0.17878758907318115,0.37304094433784485
1772456318318149600,2.339149658203125,-0.019105784595012665,0.17112940549850464,0.15894117951393127
1772456318328167700,2.349167724609375,-0.009097890928387642,-0.032338500022888184,-0.08782732486724854
1772456318338186500,2.3591865234375,0.0065351310186088085,-0.38311436772346497,-0.3113752007484436
1772456318348204500,2.36920458984375,0.043175168335437775,-0.831012487411499,-0.46070608496665955
1772456318358223600,2.3792236328125,0.08157742023468018,-1.2915633916854858,-0.5346245169639587
1772456318368241700,2.38924169921875,0.10055297613143921,-1.59237539768219,-0.5962697863578796
1772456318378259700,2.399259765625,0.12842108309268951,-1.6431485414505005,-0.6311883330345154
1772456318388278500,2.409278564453125,0.16477829217910767,-1.514082670211792,-0.5883505940437317
1772456318398296600,2.419296630859375,0.210757777094841,-1.336014747619629,-0.4099515676498413
1772456318408315600,2.429315673828125,0.23494620621204376,-1.0586352348327637,-0.10869771987199783
1772456318418333400,2.43933349609375,0.2527800500392914,-0.6827024221420288,0.2511986792087555
1772456318428352500,2.4493525390625,0.2882024943828583,-0.28669995069503784,0.6524558067321777
1772456318438370600,2.45937060546875,0.3073602020740509,0.02906147949397564,1.0541741847991943
1772456318448389600,2.4693896484375,0.24362197518348694,0.3228273093700409,1.315840721130371
1772456318458407700,2.47940771484375,0.05029859021306038,0.7514907717704773,1.4217058420181274
1772456318468426500,2.489426513671875,-0.19317717850208282,1.1247847080230713,1.2778820991516113
1772456318478444500,2.499444580078125,-0.45011550188064575,1.17508864402771,0.9150243401527405
1772456318488463600,2.509463623046875,-0.6590335369110107,1.0743145942687988,0.39482852816581726
1772456318498481400,2.5194814453125,-0.8257892727851868,0.9733899235725403,-0.15885116159915924
1772456318508499700,2.529499755859375,-0.9235528111457825,0.7820140719413757,-0.6534475684165955
1772456318518518500,2.5395185546875,-0.9734801650047302,0.4858628511428833,-1.0379295349121094
1772456318528536600,2.54953662109375,-0.9323460459709167,0.35939279198646545,-1.2560529708862305
1772456318538555600,2.5595556640625,-0.7945197224617004,0.4781663119792938,-1.2851190567016602
1772456318548573400,2.569573486328125,-0.6091389656066895,0.6733517646789551,-1.1039992570877075
1772456318558592500,2.579592529296875,-0.35665959119796753,0.7697305083274841,-0.7763058543205261
1772456318568610600,2.589610595703125,0.002335326047614217,0.6040523052215576,-0.3997889459133148
1772456318578629400,2.59962939453125,0.42474544048309326,0.36202266812324524,-0.05300809070467949
1772456318588647700,2.609647705078125,0.7443702816963196,0.2419164925813675,0.16544514894485474
1772456318598666800,2.619666748046875,0.8868361115455627,0.14385676383972168,0.14396169781684875
1772456318608684500,2.6296845703125,0.8505291938781738,-0.014170680195093155,-0.14456437528133392
1772456318618702600,2.63970263671875,0.7653176784515381,-0.1273409128189087,-0.5721023678779602
1772456318628721400,2.649721435546875,0.6302674412727356,-0.10187416523694992,-0.9500174522399902
1772456318638739700,2.65973974609375,0.41880205273628235,0.0334455743432045,-1.1999362707138062
1772456318648758500,2.669758544921875,0.17107321321964264,0.13594478368759155,-1.2510148286819458
1772456318658776600,2.679776611328125,-0.040347423404455185,0.08082081377506256,-1.0937250852584839
1772456318668795600,2.689795654296875,-0.18060946464538574,-0.07267846167087555,-0.7788414359092712
1772456318678813400,2.6998134765625,-0.3111107349395752,-0.3636658191680908,-0.3629513084888458
1772456318688832500,2.70983251953125,-0.38752642273902893,-0.7421353459358215,-0.024982847273349762
1772456318698850600,2.7198505859375,-0.38093748688697815,-0.965279221534729,0.14462509751319885
1772456318708869400,2.729869384765625,-0.32245713472366333,-1.0025027990341187,0.15267609059810638
1772456318718887700,2.7398876953125,-0.19074198603630066,-0.9005314111709595,0.06832259893417358
1772456318728906800,2.74990673828125,-0.028299547731876373,-0.6573059558868408,-0.062196530401706696
1772456318738924500,2.759924560546875,0.11250124126672745,-0.3259429633617401,-0.2193099856376648
1772456318748942600,2.769942626953125,0.224710613489151,-0.009021191857755184,-0.3437645733356476
1772456318758961700,2.779961669921875,0.27600762248039246,0.19237662851810455,-0.3821345865726471
1772456318768979500,2.7899794921875,0.30941110849380493,0.17010489106178284,-0.3322064280509949
1772456318778998500,2.79999853515625,0.3203902542591095,-0.031806930899620056,-0.22877299785614014
1772456318789016600,2.8100166015625,0.2965400516986847,-0.3148229122161865,-0.11561155319213867
1772456318799035600,2.82003564453125,0.26264122128486633,-0.5797938704490662,0.027215640991926193
1772456318809053700,2.8300537109375,0.24998852610588074,-0.8510866165161133,0.20853829383850098
1772456318819072500,2.840072509765625,0.2948143184185028,-1.0254701375961304,0.442518025636673
1772456318829090600,2.850090576171875,0.3401658236980438,-0.8697042465209961,0.7759066224098206
1772456318839109600,2.860109619140625,0.3451792299747467,-0.5033571720123291,1.0907559394836426
1772456318849127400,2.87012744140625,0.25528502464294434,0.037576936185359955,1.2675573825836182
1772456318859145700,2.880145751953125,0.00569996377453208,0.7557854056358337,1.3189095258712769
1772456318869164500,2.89016455078125,-0.3216390311717987,1.208763837814331,1.1729810237884521
1772456318879182600,2.9001826171875,-0.6724169850349426,1.4072712659835815,0.8261098861694336
1772456318889201700,2.91020166015625,-0.9798169136047363,1.5199142694473267,0.44895410537719727
1772456318899219500,2.920219482421875,-1.10059654712677,1.603194236755371,0.19737406075000763
1772456318909238500,2.930238525390625,-1.0669171810150146,1.33005690574646,0.12540052831172943
1772456318919256600,2.940256591796875,-0.9548697471618652,0.7382338643074036,0.09318426996469498
1772456318929276000,2.95027587890625,-0.8248283863067627,0.20512332022190094,-0.01998169720172882
1772456318939294200,2.960294189453125,-0.6777108311653137,-0.007921040058135986,-0.17997722327709198
1772456318949313300,2.970313232421875,-0.49714159965515137,-0.024081900715827942,-0.3090140223503113
1772456318959331000,2.9803310546875,-0.2742326259613037,0.011713114567101002,-0.3809169828891754
1772456318969350100,2.99035009765625,-0.034512970596551895,0.03402081876993179,-0.3696052134037018
1772456318979368000,3.000367919921875,0.23687726259231567,0.08341792970895767,-0.2725497782230377
1772456318989386000,3.010385986328125,0.4811019003391266,0.10274049639701843,-0.13113777339458466
1772456318999405000,3.020405029296875,0.6736154556274414,0.023018233478069305,-0.018069548532366753
1772456319009423000,3.030423095703125,0.7708458304405212,-0.09718593955039978,0.0009006810723803937
1772456319019442200,3.040442138671875,0.7436190247535706,-0.2103460431098938,-0.09471984952688217
1772456319029460000,3.0504599609375,0.6160631775856018,-0.2729300558567047,-0.2659669518470764
1772456319039479000,3.06047900390625,0.4083581864833832,-0.2921556830406189,-0.4326419532299042
1772456319049497000,3.0704970703125,0.21210800111293793,-0.38045573234558105,-0.5436822175979614
1772456319059516000,3.080515869140625,0.04019881784915924,-0.4879768490791321,-0.5768428444862366
1772456319069534000,3.090533935546875,-0.11934210360050201,-0.5314042568206787,-0.5257018804550171
1772456319079553000,3.100552978515625,-0.2135828584432602,-0.5715383291244507,-0.3639366626739502
1772456319089571000,3.110571044921875,-0.2684501111507416,-0.5298055410385132,-0.14008812606334686
1772456319099589000,3.120589111328125,-0.2863822281360626,-0.3563791513442993,0.08561903238296509
1772456319109608200,3.130608154296875,-0.2685907185077667,-0.10538394749164581,0.25484612584114075
1772456319119626000,3.1406259765625,-0.23151658475399017,0.03453480824828148,0.33556947112083435
1772456319129645000,3.15064501953125,-0.16676820814609528,-0.05319264903664589,0.2818026542663574
1772456319139663000,3.1606630859375,-0.060147225856781006,-0.2712213695049286,0.09434887021780014
1772456319149682000,3.170681884765625,0.046910516917705536,-0.43829745054244995,-0.16209755837917328
1772456319159700200,3.1807001953125,0.11204744130373001,-0.5185054540634155,-0.3582412302494049
1772456319169719000,3.190718994140625,0.1486392766237259,-0.5441112518310547,-0.4274922013282776
1772456319179737000,3.200737060546875,0.18760904669761658,-0.459738552570343,-0.3375961482524872
1772456319189756200,3.210756103515625,0.21654188632965088,-0.2631293535232544,-0.11307328939437866
1772456319199774000,3.22077392578125,0.21036389470100403,0.06760621070861816,0.2448749989271164
1772456319209793000,3.23079296875,0.18277886509895325,0.3116662800312042,0.6502419114112854
1772456319219811000,3.24081103515625,0.13281211256980896,0.45829033851623535,0.9973537921905518
1772456319229829000,3.2508291015625,-0.007442203816026449,0.4497021734714508,1.2517729997634888
1772456319239848200,3.26084814453125,-0.1740839183330536,0.4568250775337219,1.3916531801223755
1772456319249866000,3.270865966796875,-0.34199702739715576,0.5497264862060547,1.4206310510635376
1772456319259885000,3.280885009765625,-0.490479439496994,0.4591768980026245,1.2579611539840698
1772456319269903000,3.290903076171875,-0.6249240636825562,0.30221471190452576,0.7827177047729492
1772456319279922000,3.300921875,-0.7789421081542969,0.325847864151001,0.20855027437210083
1772456319289940200,3.310940185546875,-0.8769150376319885,0.2688961625099182,-0.28551003336906433
1772456319299959300,3.320959228515625,-0.87448650598526,0.0658586397767067,-0.6299912333488464
1772456319309977000,3.33097705078125,-0.7667078375816345,-0.1350422352552414,-0.8259029984474182
1772456319319996200,3.34099609375,-0.6037148833274841,-0.20593984425067902,-0.8686432242393494
1772456319330014000,3.351013916015625,-0.4181261360645294,-0.0969286784529686,-0.7602357864379883
1772456319340032000,3.361031982421875,-0.18647827208042145,0.08574286848306656,-0.5368823409080505
1772456319350051000,3.371051025390625,0.1065533384680748,0.17924831807613373,-0.2831001579761505
1772456319360069000,3.381069091796875,0.4101954996585846,0.09789620339870453,-0.09237547218799591
1772456319370088200,3.391088134765625,0.6219655275344849,-0.0032202943693846464,0.0343068391084671
1772456319380106000,3.40110595703125,0.6975255608558655,-0.12888102233409882,0.06408311426639557
1772456319390125000,3.411125,0.6725437641143799,-0.19295135140419006,-0.03272998332977295
1772456319400143000,3.42114306640625,0.5973158478736877,-0.20118078589439392,-0.2597450315952301
1772456319410162000,3.431161865234375,0.5049118995666504,-0.23259276151657104,-0.5523952841758728
1772456319420180000,3.441179931640625,0.40006378293037415,-0.26249900460243225,-0.7496428489685059
1772456319430199000,3.451198974609375,0.283143013715744,-0.28671273589134216,-0.7476513385772705
1772456319440217000,3.461217041015625,0.16545526683330536,-0.3343856930732727,-0.5776779651641846
1772456319450236200,3.471236083984375,0.06607355922460556,-0.41177529096603394,-0.327227920293808
1772456319460254000,3.48125390625,-0.029870014637708664,-0.44992586970329285,-0.09164709597826004
1772456319470272000,3.49127197265625,-0.11318328231573105,-0.3899408280849457,0.08963427692651749
1772456319480291000,3.501291015625,-0.18081265687942505,-0.24730539321899414,0.19875703752040863
1772456319490309000,3.51130908203125,-0.2309807538986206,-0.11408156156539917,0.21196125447750092
1772456319500328000,3.521327880859375,-0.2746502161026001,0.028623389080166817,0.18879787623882294
1772456319510346200,3.53134619140625,-0.2803102135658264,0.11118724197149277,0.1678537130355835
1772456319520365000,3.541364990234375,-0.26186037063598633,0.1589646190404892,0.1299329698085785
1772456319530383000,3.551383056640625,-0.21237272024154663,0.16369998455047607,0.047439154237508774
1772456319540402200,3.561402099609375,-0.13059130311012268,0.07527824491262436,-0.06992235779762268
1772456319550420000,3.571419921875,-0.04162334278225899,-0.1085967868566513,-0.1878814846277237
1772456319560439000,3.58143896484375,0.03206126391887665,-0.3689199686050415,-0.24959971010684967
1772456319570457000,3.59145703125,0.09665623307228088,-0.6840797662734985,-0.20444181561470032
1772456319580475100,3.60147509765625,0.1360315978527069,-0.9779130220413208,-0.03882090002298355
1772456319590494200,3.611494140625,0.14224661886692047,-1.1394832134246826,0.17231717705726624
1772456319600512000,3.621511962890625,0.11842571198940277,-1.226953148841858,0.3431549668312073
1772456319610531000,3.631531005859375,0.06790953874588013,-1.0989196300506592,0.47030943632125854
1772456319620548900,3.641548828125,-0.05595647543668747,-0.5782734751701355,0.6035375595092773
1772456319630568000,3.65156787109375,-0.17339229583740234,0.12291846424341202,0.7336902022361755
1772456319640586200,3.661586181640625,-0.31460320949554443,0.7606661915779114,0.7904456257820129
1772456319650605000,3.67160498046875,-0.4560199975967407,1.274659514427185,0.6429826617240906
1772456319660623000,3.681623046875,-0.6064206957817078,1.6712782382965088,0.3262404203414917
1772456319670642200,3.69164208984375,-0.6753406524658203,1.8658503293991089,0.025194302201271057
1772456319680660000,3.701659912109375,-0.6157752871513367,1.7700849771499634,-0.17602242529392242
1772456319690678000,3.711677978515625,-0.4282166063785553,1.329365611076355,-0.3455025255680084
1772456319700697000,3.721697021484375,-0.2106267511844635,0.8808831572532654,-0.536012589931488
1772456319710715100,3.731715087890625,-0.029978938400745392,0.6185210347175598,-0.6665008068084717
1772456319720734200,3.741734130859375,0.1492169201374054,0.45248836278915405,-0.722076952457428
1772456319730752000,3.751751953125,0.31256988644599915,0.2757767140865326,-0.7190223336219788
1772456319740771000,3.76177099609375,0.4181423783302307,0.041548240929841995,-0.627104640007019
1772456319750789000,3.7717890625,0.4605862498283386,-0.15227076411247253,-0.47267061471939087
1772456319760808000,3.781807861328125,0.4218471050262451,-0.3445754945278168,-0.37636512517929077
1772456319770826000,3.791825927734375,0.3144918978214264,-0.4810608923435211,-0.381727933883667
1772456319780845000,3.801844970703125,0.19776900112628937,-0.4631836414337158,-0.45068541169166565
1772456319790863000,3.811863037109375,0.0925123542547226,-0.4324829876422882,-0.5714648365974426
1772456319800882200,3.821882080078125,-0.018991267308592796,-0.45989328622817993,-0.6711735725402832
1772456319810900000,3.83189990234375,-0.16706861555576324,-0.5156739950180054,-0.6936695575714111
1772456319820918000,3.84191796875,-0.32772913575172424,-0.5972343683242798,-0.5655632615089417
1772456319830937000,3.85193701171875,-0.42393556237220764,-0.7134259343147278,-0.29192960262298584
1772456319840955100,3.861955078125,-0.456485778093338,-0.7822740077972412,-0.004190750420093536
1772456319850974200,3.87197412109375,-0.4086471498012543,-0.6729967594146729,0.1577637940645218
1772456319860992000,3.881991943359375,-0.2799922525882721,-0.4888671636581421,0.16261900961399078
1772456319871011000,3.892010986328125,-0.1336936205625534,-0.26001667976379395,0.058589011430740356
1772456319881029000,3.902029052734375,0.000988032785244286,-0.11767736077308655,-0.08464564383029938
1772456319891048000,3.9120478515625,0.13830435276031494,-0.059970393776893616,-0.17134805023670197
1772456319901066000,3.92206591796875,0.23848341405391693,-0.013550163246691227,-0.1537027359008789
1772456319911085000,3.9320849609375,0.2884957194328308,-0.0231774915009737,-0.094162717461586
1772456319921103000,3.94210302734375,0.29187339544296265,-0.09861072897911072,-0.08387093245983124
1772456319931120600,3.95212060546875,0.2542530596256256,-0.10969720035791397,-0.09824321419000626
1772456319941139700,3.9621396484375,0.19991683959960938,-0.12685860693454742,-0.09741177409887314
1772456319951157800,3.97215771484375,0.15179964900016785,-0.24168239533901215,-0.05542623996734619
1772456319961176600,3.982176513671875,0.12534166872501373,-0.3704662024974823,0.027177292853593826
1772456319971194600,3.992194580078125,0.1228494867682457,-0.48334801197052,0.1548423171043396
1772456319981213700,4.002213623046875,0.10003818571567535,-0.49657142162323,0.35968732833862305
1772456319991231700,4.012231689453125,0.016048207879066467,-0.5088062286376953,0.579204261302948
1772456320001250800,4.022250732421875,-0.09677687287330627,-0.48092934489250183,0.7347139120101929
1772456320011268600,4.0322685546875,-0.21457648277282715,-0.2899399399757385,0.7421103119850159
1772456320021287700,4.04228759765625,-0.38435059785842896,0.001350488979369402,0.5902800559997559
1772456320031305700,4.0523056640625,-0.5734382271766663,0.393201619386673,0.28309881687164307
1772456320041323800,4.06232373046875,-0.7526463270187378,0.8764268755912781,-0.0075878784991800785
1772456320051342800,4.0723427734375,-0.8261900544166565,1.1369292736053467,-0.12503834068775177
1772456320061360600,4.082360595703125,-0.8352125883102417,0.9946299195289612,-0.1037873849272728
1772456320071379700,4.092379638671875,-0.7977693676948547,0.5175667405128479,-0.09136267006397247
1772456320081397800,4.102397705078125,-0.7277165055274963,0.05024905502796173,-0.17111608386039734
1772456320091416600,4.11241650390625,-0.5740475654602051,-0.15966768562793732,-0.308622270822525
1772456320101434600,4.1224345703125,-0.2970156967639923,-0.12409505248069763,-0.36139920353889465
1772456320111453700,4.13245361328125,0.04421193525195122,0.024155670776963234,-0.26435521245002747
1772456320121471700,4.1424716796875,0.3660094141960144,0.11349353939294815,-0.09669511765241623
1772456320131490800,4.15249072265625,0.6219631433486938,0.21165738999843597,0.07859121263027191
1772456320141508600,4.162508544921875,0.7997629642486572,0.3050509989261627,0.21288137137889862
1772456320151527700,4.172527587890625,0.8771312832832336,0.3305169343948364,0.23369477689266205
1772456320161545700,4.182545654296875,0.8352884650230408,0.18992120027542114,0.11549516767263412
1772456320171563500,4.1925634765625,0.6717232465744019,-0.09895960241556168,-0.1193370446562767
1772456320181582600,4.20258251953125,0.427163302898407,-0.44878923892974854,-0.3559200167655945
1772456320191601000,4.212600830078125,0.18564416468143463,-0.7179389595985413,-0.4734455943107605
1772456320201619700,4.22261962890625,-0.03587144985795021,-0.8586100339889526,-0.4617186188697815
1772456320211637800,4.2326376953125,-0.18721835315227509,-0.8862429857254028,-0.3653380274772644
1772456320221656800,4.24265673828125,-0.30861908197402954,-0.7734589576721191,-0.17482614517211914
1772456320231674600,4.252674560546875,-0.3909294009208679,-0.512868344783783,0.032280974090099335
1772456320241693700,4.262693603515625,-0.40776270627975464,-0.24637675285339355,0.17199893295764923
1772456320251711500,4.27271142578125,-0.3185044825077057,-0.06034509837627411,0.2592771053314209
1772456320261730600,4.28273046875,-0.15636377036571503,0.028368258848786354,0.3007952570915222
1772456320271748900,4.292748779296875,0.026266757398843765,0.03208230063319206,0.27986282110214233
1772456320281766700,4.3027666015625,0.1869238168001175,0.014056163839995861,0.208818718791008
1772456320291785700,4.31278564453125,0.2878965139389038,-0.04619359225034714,0.10968681424856186
1772456320301803500,4.322803466796875,0.3263879716396332,-0.11114782840013504,0.03380323573946953
1772456320311822600,4.332822509765625,0.33170124888420105,-0.2071039229631424,0.03648477420210838
1772456320321840600,4.342840576171875,0.3191891610622406,-0.30468401312828064,0.09921207278966904
1772456320331859700,4.352859619140625,0.2986588776111603,-0.3292956054210663,0.18403054773807526
1772456320341877800,4.362877685546875,0.26519250869750977,-0.20353049039840698,0.28366872668266296
1772456320351896800,4.372896728515625,0.2289825826883316,-0.00020932445477228612,0.45444872975349426
1772456320361914600,4.38291455078125,0.20614464581012726,0.17052167654037476,0.6858654618263245
1772456320371933700,4.39293359375,0.18996328115463257,0.3497260510921478,0.907448947429657
1772456320381951700,4.40295166015625,0.1453007310628891,0.45571771264076233,0.9994435906410217
1772456320391969800,4.4129697265625,0.04484710097312927,0.4130634665489197,0.9240873456001282
1772456320401988900,4.42298876953125,-0.10976910591125488,0.35673654079437256,0.683891773223877
1772456320412006700,4.433006591796875,-0.30146583914756775,0.3201596438884735,0.34933456778526306
1772456320422025700,4.443025634765625,-0.4304121136665344,0.25102129578590393,-0.01943681389093399
1772456320432043800,4.453043701171875,-0.5099977254867554,0.06041940301656723,-0.33684006333351135
1772456320442062600,4.4630625,-0.5411133170127869,-0.27058783173561096,-0.5706434845924377
1772456320452080600,4.47308056640625,-0.5008585453033447,-0.514211118221283,-0.6586207747459412
1772456320462099700,4.483099609375,-0.3717000484466553,-0.5687564015388489,-0.5520634651184082
1772456320472117800,4.49311767578125,-0.14988510310649872,-0.35567209124565125,-0.33943185210227966
1772456320482136800,4.50313671875,0.08309195935726166,-0.022664299234747887,-0.22275876998901367
1772456320492154600,4.513154541015625,0.2851092219352722,0.2494569718837738,-0.25105538964271545
1772456320502172700,4.523172607421875,0.424878865480423,0.5049305558204651,-0.23600773513317108
1772456320512191700,4.533191650390625,0.49294206500053406,0.6526065468788147,-0.18591074645519257
1772456320522209500,4.54320947265625,0.4941332936286926,0.6967143416404724,-0.14319416880607605
1772456320532228600,4.553228515625,0.4301052987575531,0.6993186473846436,-0.17892608046531677
1772456320542246700,4.56324658203125,0.29249951243400574,0.5980628728866577,-0.3493947386741638
1772456320552265700,4.573265625,0.10567769408226013,0.3866657018661499,-0.5629722476005554
1772456320562283800,4.58328369140625,-0.052252285182476044,0.0904041975736618,-0.6824262142181396
1772456320572302600,4.593302490234375,-0.16336895525455475,-0.191950261592865,-0.6171465516090393
1772456320582320600,4.603320556640625,-0.2552085816860199,-0.4181104302406311,-0.35219720005989075
1772456320592339700,4.613339599609375,-0.30539587140083313,-0.6092742681503296,0.03570420295000076
1772456320602357500,4.623357421875,-0.2668918967247009,-0.655340850353241,0.2917248010635376
1772456320612376600,4.63337646484375,-0.15006300806999207,-0.5805251598358154,0.3049825429916382
1772456320622395000,4.643394775390625,0.04360872879624367,-0.5194692611694336,0.18459194898605347
1772456320632412700,4.65341259765625,0.22814448177814484,-0.5163275599479675,0.012795157730579376
1772456320642431700,4.663431640625,0.39006307721138,-0.5574557781219482,-0.1223517432808876
1772456320652449500,4.673449462890625,0.515618085861206,-0.631736159324646,-0.22660304605960846
1772456320662468600,4.683468505859375,0.5294342637062073,-0.6483673453330994,-0.37397199869155884
1772456320672486700,4.693486572265625,0.3664054274559021,-0.5007621645927429,-0.5196272134780884
1772456320682505700,4.703505615234375,0.19585126638412476,-0.23156185448169708,-0.461452841758728
1772456320692523800,4.713523681640625,0.10017027705907822,0.1360667645931244,-0.18310829997062683
1772456320702542800,4.72354296875,0.09834734350442886,0.4717260003089905,0.19725394248962402
1772456320712560600,4.733560546875,0.12703731656074524,0.6968781352043152,0.56239253282547
1772456320722579700,4.743579833984375,0.19339503347873688,0.7795184254646301,0.8360661268234253
1772456320732597500,4.753597412109375,0.280155748128891,0.7660556435585022,1.0048527717590332
1772456320742615800,4.76361572265625,0.3296215832233429,0.7681728601455688,1.069710612297058
1772456320752635000,4.773634765625,0.3189034163951874,0.7916951775550842,0.9938552379608154
1772456320762652700,4.783652587890625,0.23044998943805695,0.7677499055862427,0.7547352910041809
1772456320772671700,4.793671630859375,0.07855765521526337,0.6221413016319275,0.4703960120677948
1772456320782689800,4.803689697265625,-0.12046968936920166,0.4575853943824768,0.2323133945465088
1772456320792708600,4.81370849609375,-0.30493301153182983,0.41727685928344727,0.08617856353521347
1772456320802726700,4.8237265625,-0.3885645270347595,0.4168432950973511,-0.005555087700486183
1772456320812745700,4.833745849609375,-0.3770468831062317,0.24558019638061523,-0.07494907826185226
1772456320822763800,4.843763671875,-0.2942529320716858,0.013577594421803951,-0.18053781986236572
1772456320832782800,4.853782958984375,-0.23896650969982147,-0.06713323295116425,-0.3716380000114441
1772456320842800600,4.863800537109375,-0.17669513821601868,0.0925174131989479,-0.5139961838722229
1772456320852819700,4.87381982421875,-0.06470789015293121,0.3114319145679474,-0.46104830503463745
1772456320862837800,4.883837646484375,0.08979327231645584,0.4232900142669678,-0.25406211614608765
1772456320872855600,4.89385546875,0.24452905356884003,0.3793574273586273,-0.0314311608672142
1772456320882874600,4.90387451171875,0.34598031640052795,0.33425307273864746,0.12401249259710312
1772456320892892700,4.913892578125,0.3877708911895752,0.21218496561050415,0.1303343027830124
1772456320902911700,4.923911865234375,0.36022689938545227,0.033847711980342865,-0.002567553659901023
1772456320912929800,4.9339296875,0.31892311573028564,-0.14181971549987793,-0.1961119920015335
1772456320922948600,4.943948486328125,0.24884045124053955,-0.23961764574050903,-0.3942607641220093
1772456320932966700,4.953966552734375,0.12533794343471527,-0.33301976323127747,-0.5148918032646179
1772456320942985700,4.96398583984375,-0.027345869690179825,-0.47404614090919495,-0.5331009030342102
1772456320953003500,4.97400341796875,-0.1483689695596695,-0.6798152923583984,-0.4495660960674286
1772456320963022600,4.984022705078125,-0.215506449341774,-0.873142659664154,-0.2824934720993042
1772456320973041000,4.994041015625,-0.2395353615283966,-0.9634507298469543,-0.0810391902923584
1772456320983058700,5.00405859375,-0.19871015846729279,-0.9156293869018555,0.08462673425674438
1772456320993077800,5.014077880859375,-0.1099933460354805,-0.7682279348373413,0.16015851497650146
1772456321003095600,5.024095458984375,0.011355185881257057,-0.5785762667655945,0.11847604811191559
1772456321013114600,5.034114501953125,0.13949424028396606,-0.31471800804138184,0.02376817911863327
1772456321023133000,5.0441328125,0.26313814520835876,-0.03678224980831146,-0.03381602093577385
1772456321033151700,5.05415185546875,0.32173940539360046,0.12024252116680145,-0.06210331991314888
1772456321043169800,5.064169677734375,0.3169206976890564,0.17871728539466858,-0.08158327639102936
1772456321053188900,5.07418896484375,0.2753511369228363,0.15829722583293915,-0.06410708278417587
1772456321063206700,5.08420654296875,0.24573519825935364,0.04207794368267059,-0.004569718148559332
1772456321073225700,5.094225830078125,0.21996352076530457,-0.07374479621648788,0.10040996223688126
1772456321083243800,5.104243896484375,0.1777617335319519,-0.1835961937904358,0.19079925119876862
1772456321093261800,5.11426171875,0.13952326774597168,-0.3212134540081024,0.2448803186416626
1772456321103281000,5.124281005859375,0.14414837956428528,-0.47245410084724426,0.3451680541038513
1772456321113298700,5.134298583984375,0.12787434458732605,-0.4831022024154663,0.49056679010391235
1772456321123317800,5.14431787109375,0.07910414040088654,-0.24758769571781158,0.6286980509757996
1772456321133335800,5.154335693359375,0.019577164202928543,0.16990888118743896,0.7082125544548035
1772456321143354600,5.164354736328125,-0.10734270513057709,0.5842142105102539,0.7092549204826355
1772456321153372700,5.17437255859375,-0.2528176009654999,0.9335343837738037,0.6014235019683838
1772456321163391700,5.184391845703125,-0.41588321328163147,1.1707684993743896,0.36913755536079407
1772456321173409800,5.194409912109375,-0.5093569755554199,1.306656002998352,0.10099931806325912
1772456321183428900,5.204428955078125,-0.5272571444511414,1.1777931451797485,-0.10427287220954895
1772456321193446700,5.21444677734375,-0.4907209873199463,0.7436480522155762,-0.22167566418647766
1772456321203464700,5.224464599609375,-0.41552555561065674,0.14927177131175995,-0.30523979663848877
1772456321213483800,5.23448388671875,-0.33314546942710876,-0.27380838990211487,-0.3516773581504822
1772456321223501600,5.24450146484375,-0.22187434136867523,-0.34534940123558044,-0.33532580733299255
1772456321233520600,5.254520751953125,-0.05969129502773285,-0.15871986746788025,-0.2450859248638153
1772456321243538700,5.26453857421875,0.11480940878391266,0.0397932194173336,-0.1608131229877472
1772456321253557800,5.274557861328125,0.27073854207992554,0.1778871715068817,-0.1440248191356659
1772456321263575800,5.284575927734375,0.388720840215683,0.26702210307121277,-0.15276238322257996
1772456321273594600,5.2945947265625,0.45523861050605774,0.27685075998306274,-0.14886005222797394
1772456321283612700,5.30461279296875,0.4734290838241577,0.17946776747703552,-0.1476307362318039
1772456321293631700,5.3146318359375,0.4410064220428467,0.01563648320734501,-0.1805942803621292
1772456321303649500,5.3246494140625,0.35080888867378235,-0.20703786611557007,-0.24830567836761475
1772456321313668600,5.334668701171875,0.19343684613704681,-0.4373680055141449,-0.31188198924064636
1772456321323687000,5.34468701171875,-0.010478473268449306,-0.6532864570617676,-0.3320764899253845
1772456321333704700,5.35470458984375,-0.23501357436180115,-0.7679017186164856,-0.28320056200027466
1772456321343723800,5.364723876953125,-0.4129321873188019,-0.7361177206039429,-0.15525883436203003
1772456321353741600,5.374741455078125,-0.4854449927806854,-0.5087287425994873,-0.06699661165475845
1772456321363760600,5.3847607421875,-0.4524708092212677,-0.10937682539224625,-0.050936415791511536
1772456321373779000,5.394779052734375,-0.34729617834091187,0.22870108485221863,-0.061516355723142624
1772456321383797800,5.4047978515625,-0.19668669998645782,0.4274807572364807,-0.05541905015707016
1772456321393815800,5.41481591796875,0.00022290658671408892,0.478637158870697,-0.027393540367484093
1772456321403835000,5.4248349609375,0.22229379415512085,0.35123685002326965,-0.012412461452186108
1772456321413852700,5.434852783203125,0.39213740825653076,0.13207334280014038,-0.060315538197755814
1772456321423871700,5.444871826171875,0.44982627034187317,-0.14766456186771393,-0.16625741124153137
1772456321433889500,5.4548896484375,0.359988272190094,-0.3653545379638672,-0.24465714395046234
1772456321443907800,5.464907958984375,0.2024282068014145,-0.5591458678245544,-0.23115332424640656
1772456321453927000,5.474927001953125,0.0791960209608078,-0.6554004549980164,-0.0713663250207901
1772456321463944700,5.48494482421875,0.03911544382572174,-0.6081680059432983,0.17144978046417236
1772456321473963800,5.4949638671875,0.030585339292883873,-0.4589739739894867,0.44127699732780457
1772456321483981800,5.50498193359375,0.04048910364508629,-0.21140891313552856,0.6919510364532471
1772456321494000600,5.515000732421875,0.10213062912225723,0.07180521637201309,0.8603752255439758
1772456321504018700,5.525018798828125,0.18140414357185364,0.41502541303634644,0.9370561242103577
1772456321514037800,5.535037841796875,0.16570374369621277,0.6342829465866089,0.8892790079116821
1772456321524055800,5.545055908203125,0.05223390832543373,0.6848635673522949,0.638684868812561
1772456321534075000,5.555074951171875,-0.11757403612136841,0.6466608047485352,0.22548478841781616
1772456321544092700,5.5650927734375,-0.26858779788017273,0.6404519081115723,-0.08151323348283768
1772456321554110700,5.57511083984375,-0.37449583411216736,0.6294026970863342,-0.15831081569194794
1772456321564129800,5.5851298828125,-0.40276315808296204,0.5162023901939392,-0.08361420035362244
1772456321574147600,5.595147705078125,-0.3401908576488495,0.3376730978488922,-0.03930746018886566
1772456321584166700,5.605166748046875,-0.24529391527175903,0.18547478318214417,-0.09970954805612564
1772456321594184700,5.615184814453125,-0.12558242678642273,0.18849055469036102,-0.19807952642440796
1772456321604203800,5.625203857421875,0.03365330025553703,0.33440515398979187,-0.21634109318256378
1772456321614221800,5.635221923828125,0.19368185102939606,0.472402423620224,-0.1518758088350296
1772456321624240600,5.64524072265625,0.30358225107192993,0.4295569658279419,-0.08284508436918259
1772456321634258700,5.6552587890625,0.3488115072250366,0.282026082277298,-0.012602344155311584
1772456321644277800,5.66527783203125,0.3278191387653351,0.06531349569559097,0.0443381704390049
1772456321654295800,5.6752958984375,0.25108522176742554,-0.24972887337207794,0.03349883854389191
1772456321664314600,5.685314697265625,0.1673000454902649,-0.6200640797615051,-0.07300256937742233
1772456321674332700,5.695332763671875,0.11488983035087585,-0.9522952437400818,-0.22253373265266418
1772456321684350700,5.705350830078125,0.0852014496922493,-1.140113353729248,-0.3176533281803131
1772456321694369800,5.715369873046875,0.052932724356651306,-1.1616215705871582,-0.31105509400367737
1772456321704387600,5.7253876953125,-0.01438453234732151,-1.0192197561264038,-0.22046498954296112
1772456321714406700,5.73540673828125,-0.0757453590631485,-0.7540114521980286,-0.10557809472084045
1772456321724425000,5.745425048828125,-0.11499209702014923,-0.4436091184616089,0.010658769868314266
1772456321734443800,5.75544384765625,-0.12388093024492264,-0.08290553838014603,0.11641289293766022
1772456321744461800,5.7654619140625,-0.1132727637887001,0.201887845993042,0.22224745154380798
1772456321754481000,5.77548095703125,-0.10478127002716064,0.2524671256542206,0.29610517621040344
1772456321764498700,5.785498779296875,-0.10830330103635788,0.15898245573043823,0.2985592782497406
1772456321774517800,5.795517822265625,-0.09705251455307007,-0.059174373745918274,0.1900479644536972
1772456321784535600,5.80553564453125,-0.06141861900687218,-0.32141637802124023,0.025425199419260025
1772456321794553900,5.815553955078125,0.016470586881041527,-0.4549613893032074,-0.09478429704904556
1772456321804573000,5.825572998046875,0.13284486532211304,-0.47188231348991394,-0.11278966814279556
1772456321814590700,5.8355908203125,0.2838948369026184,-0.41000962257385254,-0.0664525255560875
1772456321824609800,5.84560986328125,0.4024917781352997,-0.28843870759010315,0.01961950771510601
1772456321834627600,5.855627685546875,0.46801140904426575,-0.24590058624744415,0.15880243480205536
1772456321844646700,5.865646728515625,0.43584176898002625,-0.2930699586868286,0.34899261593818665
1772456321854664700,5.875664794921875,0.3268603980541229,-0.41871577501296997,0.5592393279075623
1772456321864683500,5.88568359375,0.16401104629039764,-0.38596874475479126,0.7780464887619019
1772456321874701800,5.895701904296875,-0.03817348554730415,-0.07881758362054825,0.9916253685951233
1772456321884721000,5.905720947265625,-0.24321557581424713,0.3878374695777893,1.1265629529953003
1772456321894738700,5.91573876953125,-0.4441896975040436,0.8563759326934814,1.1469461917877197
1772456321904757800,5.9257578125,-0.5493614077568054,1.106096863746643,1.0214625597000122
1772456321914775800,5.93577587890625,-0.5794652104377747,1.218191385269165,0.7358418107032776
1772456321924793600,5.945793701171875,-0.5323757529258728,1.3275519609451294,0.40458184480667114
1772456321934813000,5.95581298828125,-0.35182303190231323,1.3271090984344482,0.085859514772892
1772456321944831000,5.9658310546875,-0.10370029509067535,1.1266132593154907,-0.23094932734966278
1772456321954850000,5.97585009765625,0.08368717133998871,0.7718511819839478,-0.5072011351585388
1772456321964868000,5.9858681640625,0.1796531230211258,0.3912431299686432,-0.6860910058021545
1772456321974887000,5.995886962890625,0.227083221077919,0.058875832706689835,-0.7087901830673218
1772456321984905000,6.005905029296875,0.26127153635025024,-0.1457958221435547,-0.5764044523239136
1772456321994924000,6.015924072265625,0.306680828332901,-0.2121647149324417,-0.33927392959594727
1772456322004941800,6.02594189453125,0.38334420323371887,-0.22839082777500153,-0.10891609638929367
1772456322014961000,6.0359609375,0.3982142210006714,-0.2788774371147156,-0.01221751794219017
1772456322024979000,6.04597900390625,0.3443334102630615,-0.3561655580997467,-0.04879310727119446
1772456322034997000,6.0559970703125,0.2419487088918686,-0.48451101779937744,-0.19040030241012573
1772456322045016000,6.06601611328125,0.1529053896665573,-0.5870267748832703,-0.3715282678604126
1772456322055033900,6.076033935546875,0.06632283329963684,-0.6729403138160706,-0.5101303458213806
1772456322065053000,6.086052978515625,0.0022503710351884365,-0.6779569387435913,-0.5504993796348572
1772456322075071000,6.096071044921875,-0.04741039127111435,-0.5468364357948303,-0.4798981547355652
1772456322085090000,6.106090087890625,-0.08185092359781265,-0.3307180106639862,-0.30949392914772034
1772456322095108000,6.116108154296875,-0.08103519678115845,-0.20638060569763184,-0.10834165662527084
1772456322105127200,6.126127197265625,-0.0645318552851677,-0.16338999569416046,0.024528779089450836
1772456322115145000,6.13614501953125,-0.03196485713124275,-0.11113531142473221,0.06124498322606087
1772456322125164000,6.1461640625,0.040704287588596344,-0.12307745963335037,0.004254133440554142
1772456322135181800,6.156181884765625,0.1272096186876297,-0.19656552374362946,-0.10892914980649948
1772456322145201000,6.166200927734375,0.2134409099817276,-0.24582254886627197,-0.16047756373882294
1772456322155219200,6.17621923828125,0.25691115856170654,-0.25072649121284485,-0.1635601669549942
1772456322165237000,6.186237060546875,0.2595263719558716,-0.21453094482421875,-0.1535797119140625
1772456322175256000,6.196256103515625,0.22012491524219513,-0.12103774398565292,-0.16848301887512207
1772456322185273900,6.20627392578125,0.1209660992026329,-0.08156756311655045,-0.1971660703420639
1772456322195293000,6.21629296875,0.0432468056678772,-0.05483288690447807,-0.1523892730474472
1772456322205311000,6.22631103515625,0.0024224112275987864,-0.11579770594835281,-0.0135656101629138
1772456322215329800,6.236329833984375,-0.006188121158629656,-0.29810068011283875,0.1820952296257019
1772456322225347000,6.24634716796875,0.042088598012924194,-0.46212661266326904,0.3801838159561157
1772456322235366000,6.256365966796875,0.10145551711320877,-0.5782191157341003,0.5544437766075134
1772456322245384000,6.266384033203125,0.12349583953619003,-0.6552090048789978,0.6978310346603394
1772456322255403000,6.276403076171875,0.09393874555826187,-0.5531904697418213,0.8126084804534912
1772456322265420800,6.2864208984375,-0.010351174511015415,-0.17524105310440063,0.915145754814148
1772456322275439900,6.29643994140625,-0.17278802394866943,0.23286573588848114,0.9544468522071838
1772456322285458200,6.306458251953125,-0.3668038249015808,0.5077271461486816,0.7368247509002686
1772456322295476000,6.31647607421875,-0.6211383938789368,0.8494333028793335,0.22887685894966125
1772456322305495000,6.3264951171875,-0.796267032623291,1.217957854270935,-0.2365478277206421
1772456322315512800,6.336512939453125,-0.8033894300460815,1.4453848600387573,-0.4144451320171356
1772456322325532000,6.346531982421875,-0.6953476071357727,1.2916901111602783,-0.28803765773773193
1772456322335550000,6.356550048828125,-0.5328817367553711,0.9008597731590271,-0.10837867110967636
1772456322345568800,6.36656884765625,-0.4039543867111206,0.4592525362968445,-0.12470704317092896
1772456322355587000,6.376587158203125,-0.2905402183532715,0.13805001974105835,-0.2676903009414673
1772456322365606100,6.386606201171875,-0.08550957590341568,-0.04071706905961037,-0.33323174715042114
1772456322375624000,6.3966240234375,0.17114219069480896,-0.21281905472278595,-0.24621349573135376
1772456322385643000,6.40664306640625,0.3630455732345581,-0.35939544439315796,-0.04513765126466751
1772456322395660800,6.416660888671875,0.43906524777412415,-0.3871613144874573,0.14452601969242096
1772456322405679900,6.426679931640625,0.45546337962150574,-0.3934729993343353,0.170953631401062
1772456322415698200,6.4366982421875,0.41592398285865784,-0.3871578276157379,0.010236658155918121
1772456322425716000,6.446716064453125,0.3898926377296448,-0.3524390161037445,-0.20838436484336853
1772456322435735000,6.456735107421875,0.3476570248603821,-0.2969807982444763,-0.3396736681461334
1772456322445753000,6.466753173828125,0.2757229208946228,-0.2426944077014923,-0.3124633729457855
1772456322455772000,6.47677197265625,0.15566974878311157,-0.24360014498233795,-0.18616481125354767
1772456322465790000,6.4867900390625,0.024339694529771805,-0.2579319477081299,-0.06548100709915161
1772456322475809000,6.49680908203125,-0.09621760994195938,-0.32669690251350403,-0.029936593025922775
1772456322485827000,6.5068271484375,-0.1877930760383606,-0.40392109751701355,-0.044568002223968506
1772456322495846100,6.51684619140625,-0.23106464743614197,-0.41953203082084656,-0.06242210045456886
1772456322505864000,6.526864013671875,-0.20825892686843872,-0.3542337119579315,-0.0944836288690567
1772456322515883000,6.536883056640625,-0.16262885928153992,-0.240420863032341,-0.09705863893032074
1772456322525901000,6.546901123046875,-0.06919638067483902,-0.12180046737194061,-0.09051737934350967
1772456322535918800,6.5569189453125,0.04211549460887909,0.045224204659461975,-0.11259365826845169
1772456322545938000,6.56693798828125,0.13566941022872925,0.14364904165267944,-0.17389856278896332
1772456322555956000,6.5769560546875,0.23111684620380402,0.1261957585811615,-0.23071657121181488
1772456322565975800,6.586975830078125,0.31249186396598816,-0.0023129554465413094,-0.25078535079956055
1772456322575994000,6.596994140625,0.3364240825176239,-0.1355767399072647,-0.20931246876716614
1772456322586013200,6.60701318359375,0.25756096839904785,-0.2039957344532013,-0.10382519662380219
1772456322596031000,6.617031005859375,0.11594737321138382,-0.2958393692970276,0.04560583457350731
1772456322606050000,6.627050048828125,0.01703357882797718,-0.39866429567337036,0.2305905967950821
1772456322616067800,6.63706787109375,-0.06035654991865158,-0.4653165638446808,0.4218026399612427
1772456322626087000,6.6470869140625,-0.17175258696079254,-0.423835426568985,0.5940771698951721
1772456322636105000,6.65710498046875,-0.27436789870262146,-0.1780477613210678,0.7535880208015442
1772456322646123000,6.667123046875,-0.3255637288093567,0.3020719885826111,0.8881447911262512
1772456322656142000,6.67714208984375,-0.36800146102905273,0.5707671046257019,0.8900420069694519
1772456322666159900,6.687159912109375,-0.43180254101753235,0.6091256737709045,0.6483630537986755
1772456322676179000,6.697178955078125,-0.5423572659492493,0.8570417165756226,0.2928430438041687
1772456322686197000,6.707197021484375,-0.5029427409172058,1.1542954444885254,0.042262233793735504
1772456322696215800,6.7172158203125,-0.46674561500549316,1.2163852453231812,-0.12045451253652573
1772456322706233900,6.72723388671875,-0.4694950580596924,1.0348221063613892,-0.20927013456821442
1772456322716253000,6.7372529296875,-0.4589638411998749,0.5489233136177063,-0.32603031396865845
1772456322726271000,6.74727099609375,-0.45207878947257996,0.0010756507981568575,-0.43949800729751587
1772456322736290000,6.7572900390625,-0.37605512142181396,-0.28768956661224365,-0.44894716143608093
1772456322746308000,6.76730810546875,-0.11227647215127945,-0.2215805947780609,-0.28216004371643066
1772456322756327000,6.777326904296875,0.25504136085510254,-0.09956707060337067,0.017459949478507042
1772456322766345000,6.787344970703125,0.5340785980224609,-0.026380473747849464,0.22819748520851135
1772456322776363000,6.797363037109375,0.7000489234924316,-0.06361759454011917,0.2095383107662201
1772456322786382000,6.807382080078125,0.7719593048095703,-0.1880282312631607,0.017197096720337868
1772456322796400000,6.817400146484375,0.7281470894813538,-0.4821344316005707,-0.2566107511520386
1772456322806419000,6.8274189453125,0.6266953349113464,-0.8221319317817688,-0.5216413736343384
1772456322816437000,6.83743701171875,0.49262115359306335,-1.0396314859390259,-0.7117159366607666
1772456322826456000,6.8474560546875,0.34150806069374084,-1.0817980766296387,-0.787675678730011
1772456322836473900,6.857473876953125,0.18918271362781525,-0.9586272239685059,-0.7604512572288513
1772456322846493000,6.867492919921875,0.05453541502356529,-0.7572735548019409,-0.6301428079605103
1772456322856511000,6.877510986328125,-0.05467922240495682,-0.6145755648612976,-0.44157126545906067
1772456322866530000,6.887530029296875,-0.1172557845711708,-0.4910309612751007,-0.21318285167217255
1772456322876548000,6.897548095703125,-0.15052026510238647,-0.3813614547252655,-0.021856296807527542
1772456322886566000,6.90756591796875,-0.14834606647491455,-0.23237651586532593,0.0982876867055893
1772456322896585000,6.9175849609375,-0.08419903367757797,-0.0906662568449974,0.11654392629861832
1772456322906603000,6.92760302734375,0.05836397409439087,-0.010639594867825508,0.03906963765621185
1772456322916621800,6.937621826171875,0.21769770979881287,-0.019050655886530876,-0.12161830812692642
1772456322926640000,6.94764013671875,0.31749778985977173,0.04158525913953781,-0.30066290497779846
1772456322936659000,6.957658935546875,0.3663122057914734,0.15346145629882812,-0.4535922706127167
1772456322946677000,6.967677001953125,0.36301708221435547,0.21986445784568787,-0.505164623260498
1772456322956696000,6.977696044921875,0.3185252547264099,0.24685558676719666,-0.4261470437049866
1772456322966713900,6.9877138671875,0.2146340012550354,0.15436559915542603,-0.28830423951148987
1772456322976733000,6.99773291015625,0.0830693170428276,-0.1021956130862236,-0.17719635367393494
1772456322986750700,7.007750732421875,-0.015190936625003815,-0.34257757663726807,-0.030341926962137222
1772456322996769800,7.017769775390625,-0.05639829486608505,-0.3438255488872528,0.2269870787858963
1772456323006788000,7.0277880859375,-0.11065567284822464,-0.17811301350593567,0.5186892151832581
1772456323016807000,7.037806884765625,-0.16120034456253052,0.005228850524872541,0.7177461385726929
1772456323026825000,7.047824951171875,-0.20189423859119415,0.33923453092575073,0.8235458135604858
1772456323036842800,7.0578427734375,-0.19789816439151764,0.5941799879074097,0.7574933171272278
1772456323046861800,7.06786181640625,-0.1957354098558426,0.6336379051208496,0.37060362100601196
1772456323056879900,7.0778798828125,-0.2643088698387146,0.7331847548484802,-0.16407282650470734
1772456323066899000,7.08789892578125,-0.27594131231307983,0.8196085691452026,-0.5595634579658508
1772456323076917000,7.0979169921875,-0.25237151980400085,0.695244312286377,-0.7872794270515442
1772456323086936000,7.10793603515625,-0.21480205655097961,0.43147122859954834,-0.9097784161567688
1772456323096953900,7.117953857421875,-0.17364662885665894,0.37088966369628906,-0.8641403913497925
1772456323106973000,7.127972900390625,-0.081702321767807,0.5552594661712646,-0.5886943936347961
1772456323116991000,7.137990966796875,0.08962549269199371,0.7151002883911133,-0.18476425111293793
1772456323127009800,7.148009765625,0.2675510048866272,0.6438223719596863,0.13161209225654602
1772456323137028000,7.158028076171875,0.39285433292388916,0.47275155782699585,0.2292076200246811
1772456323147047200,7.168047119140625,0.4648616909980774,0.2670913636684418,0.06620485335588455
1772456323157065000,7.17806494140625,0.4351314902305603,-0.1392926424741745,-0.2729510962963104
1772456323167083000,7.1880830078125,0.33818763494491577,-0.6912919282913208,-0.6511538028717041
1772456323177101800,7.198101806640625,0.22386692464351654,-1.1177129745483398,-0.9559376835823059
1772456323187119900,7.208119873046875,0.13743402063846588,-1.2931971549987793,-1.1102406978607178
1772456323197139000,7.218138916015625,0.053941529244184494,-1.179650068283081,-1.0788476467132568
1772456323207157000,7.228156982421875,-0.006987868342548609,-0.8989319205284119,-0.8694972991943359
1772456323217176000,7.238176025390625,-0.06309641152620316,-0.5796162486076355,-0.5267263650894165
1772456323227193900,7.24819384765625,-0.10686040669679642,-0.2221212089061737,-0.11427544057369232
1772456323237213000,7.258212890625,-0.137013778090477,0.2075747698545456,0.24890010058879852
1772456323247231000,7.26823095703125,-0.11589730530977249,0.5675910115242004,0.4495999217033386
1772456323257249800,7.278249755859375,-0.0305738877505064,0.7566962242126465,0.4656108319759369
1772456323267267800,7.288267822265625,0.04886873811483383,0.7828835844993591,0.40951693058013916
1772456323277287000,7.298286865234375,0.12140072882175446,0.5562376976013184,0.2635488212108612
1772456323287305000,7.308304931640625,0.1808968186378479,0.21930651366710663,0.03290868178009987
1772456323297323000,7.318322998046875,0.19757485389709473,-0.13829661905765533,-0.22598573565483093
1772456323307342000,7.328342041015625,0.1541658639907837,-0.48208141326904297,-0.41909128427505493
1772456323317359900,7.33835986328125,0.06831487268209457,-0.712651252746582,-0.46218574047088623
1772456323327379000,7.34837890625,-0.032398153096437454,-0.8052427172660828,-0.3891757130622864
1772456323337396700,7.358396728515625,-0.1156749352812767,-0.7206431031227112,-0.20722216367721558
1772456323347415800,7.368415771484375,-0.16521425545215607,-0.5103820562362671,0.05432076379656792
1772456323357434000,7.37843408203125,-0.17623814940452576,-0.19005116820335388,0.4049573540687561
1772456323367453000,7.388452880859375,-0.1719006597995758,0.20651322603225708,0.8175867199897766
1772456323377471000,7.398470947265625,-0.12916810810565948,0.5705255270004272,1.1549253463745117
1772456323387490000,7.408489990234375,-0.10208162665367126,0.9498387575149536,1.3252248764038086
1772456323397507800,7.4185078125,-0.13010208308696747,1.3032221794128418,1.3104404211044312
1772456323407526100,7.428526123046875,-0.24590004980564117,1.32826566696167,1.0271953344345093
1772456323417545000,7.438544921875,-0.42901286482810974,1.0168532133102417,0.5171595215797424
1772456323427563000,7.44856298828125,-0.6023412346839905,0.6971670985221863,-0.05228317901492119
1772456323437582000,7.45858203125,-0.7228732705116272,0.5181313157081604,-0.4836582839488983
1772456323447599900,7.468599853515625,-0.7791754007339478,0.2583782970905304,-0.6833183765411377
1772456323457619000,7.478618896484375,-0.7705289125442505,-0.06810048967599869,-0.6514917612075806
1772456323467636700,7.48863671875,-0.6562516093254089,-0.09663599729537964,-0.37085211277008057
1772456323477655800,7.49865576171875,-0.3968687951564789,0.01756194978952408,-0.046054575592279434
1772456323487674000,7.508674072265625,-0.11522939056158066,0.23099033534526825,0.1231890395283699
1772456323497693000,7.51869287109375,0.14074327051639557,0.44166022539138794,0.19771866500377655
1772456323507711000,7.5287109375,0.3776783049106598,0.4683712124824524,0.29240602254867554
1772456323517730000,7.53872998046875,0.5540900826454163,0.32797494530677795,0.4277345538139343
1772456323527747800,7.548747802734375,0.6195117235183716,0.13829156756401062,0.5064266920089722
1772456323537767000,7.558766845703125,0.5404536724090576,-0.13687050342559814,0.4089864492416382
1772456323547785000,7.568784912109375,0.3618498146533966,-0.3579826354980469,0.14966699481010437
1772456323557803000,7.578802978515625,0.15707989037036896,-0.4610331356525421,-0.1941833198070526
1772456323567822000,7.588822021484375,-0.0542837455868721,-0.41130658984184265,-0.48375627398490906
1772456323577839900,7.59883984375,-0.24970783293247223,-0.2829970717430115,-0.6355988383293152
1772456323587859000,7.60885888671875,-0.3919091820716858,-0.2525438368320465,-0.6333385705947876
1772456323597877000,7.618876953125,-0.41301608085632324,-0.30374816060066223,-0.4960789978504181
1772456323607895800,7.628895751953125,-0.3006490468978882,-0.3599581718444824,-0.2523323893547058
1772456323617913900,7.638913818359375,-0.12340076267719269,-0.39605626463890076,-0.009553557261824608
1772456323627933000,7.648932861328125,0.08894319087266922,-0.26642662286758423,0.10859305411577225
1772456323637951000,7.658950927734375,0.2804569602012634,-0.06842593103647232,0.10065577179193497
1772456323647970000,7.668969970703125,0.3675934672355652,0.044991444796323776,0.0691540390253067
1772456323657987800,7.67898779296875,0.368845134973526,0.11734127253293991,0.04241243749856949
1772456323668007000,7.6890068359375,0.34819498658180237,0.029757097363471985,-0.02491040900349617
1772456323678025000,7.69902490234375,0.2808891832828522,-0.11392443627119064,-0.15565644204616547
1772456323688042800,7.709042724609375,0.18669983744621277,-0.21191544830799103,-0.30941909551620483
1772456323698061800,7.719061767578125,0.08750108629465103,-0.23595553636550903,-0.42691484093666077
1772456323708080000,7.729080078125,0.0019345202017575502,-0.25630873441696167,-0.4348049759864807
1772456323718099000,7.739098876953125,-0.06438271701335907,-0.30910590291023254,-0.3417637348175049
1772456323728117000,7.749116943359375,-0.1032310500741005,-0.3424127399921417,-0.181544229388237
1772456323738136000,7.759135986328125,-0.09925734251737595,-0.37626126408576965,-0.016405604779720306
1772456323748153900,7.76915380859375,-0.0711229145526886,-0.33542248606681824,0.17081567645072937
1772456323758173000,7.7791728515625,-0.03507756069302559,-0.14191585779190063,0.4251305162906647
1772456323768191000,7.78919091796875,0.033670078963041306,0.1265837699174881,0.724159300327301
1772456323778210000,7.7992099609375,0.06087480112910271,0.43442174792289734,0.9635026454925537
1772456323788228000,7.80922802734375,-0.007927698083221912,0.7859097719192505,1.0616660118103027
1772456323798247000,7.819246826171875,-0.16854986548423767,1.0300630331039429,0.9565504789352417
1772456323808265000,7.829264892578125,-0.4131060838699341,1.1790189743041992,0.6802461743354797
1772456323818282800,7.83928271484375,-0.6438817977905273,1.4247480630874634,0.3608095943927765
1772456323828301800,7.8493017578125,-0.7472230792045593,1.6137384176254272,0.02508804202079773
1772456323838320000,7.859320068359375,-0.7264575958251953,1.5930275917053223,-0.2372724711894989
1772456323848339000,7.8693388671875,-0.6586383581161499,1.3025009632110596,-0.37073013186454773
1772456323858357000,7.87935693359375,-0.4974806308746338,0.8022059202194214,-0.45186999440193176
1772456323868376000,7.8893759765625,-0.26638534665107727,0.33825981616973877,-0.6020123362541199
1772456323878393900,7.899393798828125,-0.0020746025256812572,0.15295518934726715,-0.6749590039253235
1772456323888413000,7.909412841796875,0.314039409160614,0.12844346463680267,-0.4766267240047455
1772456323898430700,7.9194306640625,0.6285478472709656,-0.2282390296459198,-0.14392228424549103
1772456323908449800,7.92944970703125,0.8080664277076721,-0.5991963148117065,0.17037546634674072
1772456323918468000,7.939468017578125,0.8319267630577087,-0.8371220827102661,0.3146415650844574
1772456323928487000,7.94948681640625,0.757331371307373,-0.8851212859153748,0.20668314397335052
1772456323938504200,7.959504150390625,0.6496222019195557,-0.8174421191215515,-0.11248180270195007
1772456323948522200,7.969522216796875,0.4710668623447418,-0.7049728035926819,-0.4936339557170868
1772456323958541000,7.979541015625,0.23331475257873535,-0.5797845721244812,-0.7799261808395386
1772456323968559400,7.989559326171875,0.01774837076663971,-0.49174895882606506,-0.8481089472770691
1772456323978578400,7.999578369140625,-0.1421440988779068,-0.46486061811447144,-0.6867836713790894
1772456323988596200,8.00959619140625,-0.2279074639081955,-0.5001216530799866,-0.42368283867836
1772456323998615300,8.019615234375,-0.2614939212799072,-0.5626356601715088,-0.16607658565044403
1772456324008633000,8.029633056640625,-0.25539982318878174,-0.47474974393844604,0.026930950582027435
1772456324018652200,8.039652099609375,-0.22957193851470947,-0.25289803743362427,0.22287142276763916
1772456324028670200,8.049670166015625,-0.15901201963424683,-0.03857029601931572,0.39921531081199646
1772456324038689000,8.05968896484375,-0.03340456262230873,0.05776982381939888,0.4762459099292755
1772456324048707300,8.069707275390625,0.13002750277519226,0.09026172012090683,0.43491896986961365
1772456324058726400,8.079726318359375,0.3238275945186615,0.16013267636299133,0.3128308653831482
1772456324068744200,8.089744140625,0.512857973575592,0.18941067159175873,0.16388054192066193
1772456324078762200,8.09976220703125,0.6096940040588379,0.2068844735622406,0.011663047596812248
1772456324088781000,8.109781005859375,0.6230742335319519,0.17630499601364136,-0.12324896454811096
1772456324098799000,8.119799072265625,0.5990474820137024,0.15029096603393555,-0.1759933978319168
1772456324108818200,8.129818115234375,0.5580928325653076,0.1288655698299408,-0.14558729529380798
1772456324118836200,8.139836181640625,0.4625228941440582,0.03592843934893608,-0.06938999146223068
1772456324128855300,8.149855224609375,0.3385125398635864,-0.11256542801856995,0.0696382001042366
1772456324138873300,8.159873291015625,0.2234778255224228,-0.21806442737579346,0.2591404914855957
1772456324148892200,8.16989208984375,0.12190486490726471,-0.38277667760849,0.4726567566394806
1772456324158910200,8.17991015625,0.0409247949719429,-0.5577647089958191,0.6880782842636108
1772456324168929300,8.18992919921875,-0.027473436668515205,-0.5510327816009521,0.878978967666626
1772456324178947300,8.199947265625,-0.11741743981838226,-0.32069066166877747,1.0041382312774658
1772456324188966400,8.20996630859375,-0.21373438835144043,0.15031173825263977,1.0666383504867554
1772456324198984200,8.219984130859375,-0.308392196893692,0.5786535143852234,1.015550136566162
1772456324209003300,8.230003173828125,-0.42999985814094543,0.8647491931915283,0.7548072338104248
1772456324219021300,8.240021240234375,-0.5235713124275208,1.0727782249450684,0.3330748975276947
1772456324229039000,8.2500390625,-0.5651416778564453,1.1944564580917358,-0.08061495423316956
1772456324239058200,8.26005810546875,-0.5659558176994324,1.0794020891189575,-0.3994339406490326
1772456324249076200,8.270076171875,-0.5170372724533081,0.6676997542381287,-0.5777711868286133
1772456324259095300,8.28009521484375,-0.385985791683197,0.08053185790777206,-0.6496797204017639
1772456324269113300,8.29011328125,-0.17687144875526428,-0.322179913520813,-0.6165449619293213
1772456324279132200,8.300132080078125,0.049367282539606094,-0.42148998379707336,-0.47557371854782104
1772456324289150200,8.310150146484375,0.24327071011066437,-0.3623582124710083,-0.329575777053833
1772456324299169300,8.320169189453125,0.3838760256767273,-0.2813754975795746,-0.20519043505191803
1772456324309187000,8.33018701171875,0.46315112709999084,-0.23813027143478394,-0.06871035695075989
1772456324319206100,8.3402060546875,0.48779362440109253,-0.2545121908187866,0.04258474335074425
1772456324329224400,8.350224365234375,0.40489208698272705,-0.32563987374305725,0.06572414934635162
1772456324339243300,8.3602431640625,0.23962163925170898,-0.4325607419013977,-0.07345131039619446
1772456324349261300,8.37026123046875,0.057427339255809784,-0.4710439443588257,-0.36077895760536194
1772456324359279000,8.380279052734375,-0.11674339324235916,-0.4114631712436676,-0.6499249935150146
1772456324369298200,8.390298095703125,-0.2535784840583801,-0.3050310015678406,-0.8054725527763367
1772456324379316200,8.400316162109375,-0.3458687365055084,-0.24992488324642181,-0.7533494234085083
1772456324389335000,8.4103349609375,-0.38531360030174255,-0.36048173904418945,-0.5608593225479126
1772456324399353300,8.420353271484375,-0.38691601157188416,-0.4756397604942322,-0.3236435651779175
1772456324409372400,8.430372314453125,-0.3539660573005676,-0.4979221820831299,-0.09361304342746735
1772456324419390200,8.44039013671875,-0.2686508893966675,-0.37971189618110657,0.06502746790647507
1772456324429409300,8.4504091796875,-0.1525421440601349,-0.1957940012216568,0.11080481112003326
1772456324439427000,8.460427001953125,-0.006136455573141575,-0.025364479050040245,0.10860583931207657
1772456324449446100,8.470446044921875,0.12619975209236145,0.20524290204048157,0.07398874312639236
1772456324459464200,8.480464111328125,0.2547087073326111,0.2860107123851776,0.01931164599955082
1772456324469483300,8.490483154296875,0.3562774360179901,0.234500914812088,-0.04993320629000664
1772456324479501300,8.500501220703125,0.3719261586666107,0.02232527919113636,-0.12353525310754776
1772456324489519000,8.51051904296875,0.3633230924606323,-0.24675998091697693,-0.1736343801021576
1772456324499538200,8.5205380859375,0.3201465904712677,-0.51808762550354,-0.18677866458892822
1772456324509556200,8.53055615234375,0.2597208023071289,-0.77317214012146,-0.14187617599964142
1772456324519575000,8.540574951171875,0.18821172416210175,-0.9264631271362305,-0.026460636407136917
1772456324529593300,8.55059326171875,0.13071060180664062,-0.9354894161224365,0.10765509307384491
1772456324539612400,8.5606123046875,0.08350101858377457,-0.8463515043258667,0.25914233922958374
1772456324549630200,8.570630126953125,-0.0023305322974920273,-0.519953727722168,0.5164809226989746
1772456324559649300,8.580649169921875,-0.08823372423648834,-0.012771455571055412,0.8120905160903931
1772456324569667300,8.590667236328125,-0.16587498784065247,0.6368662118911743,1.0525201559066772
1772456324579686100,8.60068603515625,-0.26604312658309937,1.205796241760254,1.1269382238388062
1772456324589704200,8.6107041015625,-0.38277027010917664,1.299782156944275,0.8412880301475525
1772456324599723300,8.62072314453125,-0.5088565945625305,1.2604531049728394,0.3207186162471771
1772456324609741300,8.6307412109375,-0.5460537672042847,1.2937979698181152,-0.12604208290576935
1772456324619760400,8.640760498046875,-0.4868021309375763,1.1523364782333374,-0.39298775792121887
1772456324629778200,8.650778076171875,-0.4150395393371582,0.6410215497016907,-0.5074120759963989
1772456324639796200,8.660796142578125,-0.3913254141807556,0.00785605888813734,-0.5609397292137146
1772456324649815300,8.670815185546875,-0.3605661690235138,-0.27382516860961914,-0.6230968832969666
1772456324659833000,8.6808330078125,-0.24403344094753265,-0.13955816626548767,-0.6133041381835938
1772456324669852200,8.69085205078125,-0.059667058289051056,0.10512109100818634,-0.46153780817985535
1772456324679870200,8.7008701171875,0.15244652330875397,0.24619485437870026,-0.22310684621334076
1772456324689889300,8.71088916015625,0.3655012845993042,0.26304468512535095,-0.027363181114196777
1772456324699907300,8.7209072265625,0.5570163726806641,0.33332735300064087,0.10931424051523209
1772456324709926100,8.730926025390625,0.6525679230690002,0.4138389825820923,0.18838748335838318
1772456324719944200,8.740944091796875,0.615005373954773,0.3897131383419037,0.1354837864637375
1772456324729963300,8.75096337890625,0.47011637687683105,0.2608787417411804,-0.04962694272398949
1772456324739981000,8.76098095703125,0.2828308939933777,0.005732986610382795,-0.34235307574272156
1772456324750000000,8.771000244140625,0.07072290778160095,-0.2718815803527832,-0.6284943222999573
1772456324760018400,8.781018310546875,-0.15172961354255676,-0.5271527767181396,-0.8006625771522522
1772456324770037200,8.791037353515625,-0.33758416771888733,-0.7618134617805481,-0.8231298327445984
1772456324780055300,8.80105517578125,-0.4733204245567322,-0.939871609210968,-0.7176031470298767
1772456324790073000,8.811072998046875,-0.5234578847885132,-0.9245715141296387,-0.500686526298523
1772456324800092200,8.821092041015625,-0.4755052924156189,-0.7149314284324646,-0.2180609554052353
1772456324810110200,8.831110107421875,-0.3329574465751648,-0.3112249970436096,0.06160956993699074
1772456324820129300,8.84112939453125,-0.13415993750095367,0.13114124536514282,0.2732294201850891
1772456324830147300,8.851147216796875,0.1117132157087326,0.406429260969162,0.39925312995910645
1772456324840166400,8.86116650390625,0.3192765414714813,0.4796963036060333,0.4817144274711609
1772456324850184200,8.87118408203125,0.472661554813385,0.3545948266983032,0.4837448298931122
1772456324860203300,8.881203369140625,0.5580238699913025,0.09441784769296646,0.36305251717567444
1772456324870221000,8.891220947265625,0.5806005597114563,-0.19270846247673035,0.20369480550289154
1772456324880240000,8.901240234375,0.5341379642486572,-0.3721778392791748,0.09247400611639023
1772456324890258400,8.911258544921875,0.4297125041484833,-0.41560280323028564,0.10500498116016388
1772456324900277200,8.92127734375,0.3188900947570801,-0.35885509848594666,0.2781176269054413
1772456324910295300,8.93129541015625,0.2408384382724762,-0.20540562272071838,0.5836509466171265
1772456324920314400,8.941314453125,0.2179030328989029,-0.08816608041524887,0.8929464817047119
1772456324930332200,8.951332275390625,0.16340623795986176,0.008183893747627735,1.0676897764205933
1772456324940350700,8.961350830078125,0.11158618330955505,0.1989748775959015,1.1015912294387817
1772456324950369500,8.97136962890625,0.016516659408807755,0.400259792804718,1.0497504472732544
1772456324960387600,8.9813876953125,-0.16478122770786285,0.5182151794433594,0.9698473811149597
1772456324970406700,8.99140673828125,-0.3244723677635193,0.5306960940361023,0.7917399406433105
1772456324980424700,9.0014248046875,-0.46235936880111694,0.570612907409668,0.4959698021411896
1772456324990443800,9.01144384765625,-0.6470291018486023,0.5944167375564575,0.10100197792053223
1772456325000461600,9.021461669921875,-0.827279269695282,0.4532982409000397,-0.3898870348930359
1772456325010480600,9.031480712890625,-0.8811553120613098,0.11006125807762146,-0.8354536294937134
1772456325020498700,9.041498779296875,-0.8278359174728394,-0.15595604479312897,-1.0905200242996216
1772456325030517500,9.051517578125,-0.6975181102752686,-0.24830381572246552,-1.0765095949172974
1772456325040535800,9.061535888671875,-0.4630211889743805,-0.3061969578266144,-0.7835538983345032
1772456325050555000,9.071554931640625,-0.11660357564687729,-0.39545464515686035,-0.40238046646118164
1772456325060572700,9.08157275390625,0.236458882689476,-0.4947231709957123,-0.1942853182554245
1772456325070590700,9.0915908203125,0.4873635470867157,-0.48182815313339233,-0.14072862267494202
1772456325080609800,9.10160986328125,0.6083970069885254,-0.28660380840301514,-0.09499708563089371
1772456325090627600,9.111627685546875,0.6439805626869202,-0.06283248960971832,-0.0872451588511467
1772456325100646700,9.121646728515625,0.5782777070999146,0.12824025750160217,-0.15915928781032562
1772456325110664700,9.131664794921875,0.4704756438732147,0.2476220428943634,-0.24506594240665436
1772456325120683800,9.141683837890625,0.33845260739326477,0.23449638485908508,-0.26708975434303284
1772456325130701800,9.151701904296875,0.1885555386543274,0.05640468746423721,-0.22447624802589417
1772456325140720600,9.161720703125,0.021100224927067757,-0.23583942651748657,-0.16884814202785492
1772456325150738700,9.17173876953125,-0.13873018324375153,-0.5882885456085205,-0.17533665895462036
1772456325160757800,9.1817578125,-0.2514127790927887,-0.8911192417144775,-0.22516627609729767
1772456325170775600,9.191775634765625,-0.3151925802230835,-0.9724000096321106,-0.23363380134105682
1772456325180794600,9.201794677734375,-0.34458136558532715,-0.8098132014274597,-0.18422868847846985
1772456325190812700,9.211812744140625,-0.30433911085128784,-0.5019339323043823,-0.0986940860748291
1772456325200831700,9.221831787109375,-0.20215629041194916,-0.1239302009344101,-0.037393976002931595
1772456325210849800,9.231849853515625,-0.08189353346824646,0.16801217198371887,-0.014004232361912727
1772456325220868600,9.24186865234375,0.03002234734594822,0.3800775706768036,0.013819674961268902
1772456325230886700,9.25188671875,0.18079908192157745,0.4288474917411804,0.00821079220622778
1772456325240904700,9.26190478515625,0.3068278431892395,0.2907008230686188,-0.016380570828914642
1772456325250923500,9.271923583984375,0.35608646273612976,0.10531816631555557,-0.005637645721435547
1772456325260941800,9.28194189453125,0.32248643040657043,-0.06409083306789398,0.06895217299461365
1772456325270961000,9.2919609375,0.2382565140724182,-0.23969301581382751,0.1897539496421814
1772456325280978700,9.301978759765625,0.13071966171264648,-0.38127145171165466,0.3359404504299164
1772456325290997800,9.311997802734375,0.03687625750899315,-0.2933959364891052,0.4924541711807251
1772456325301015600,9.322015625,-0.013230850920081139,0.013236177153885365,0.6528438329696655
1772456325311034600,9.33203466796875,-0.05398546904325485,0.35375699400901794,0.8219345808029175
1772456325321052700,9.342052734375,-0.12389717996120453,0.7440845370292664,0.9964025616645813
1772456325331071500,9.352071533203125,-0.228728249669075,0.9983652830123901,1.083096981048584
1772456325341089800,9.36208984375,-0.3135374188423157,0.9456586837768555,0.9624927639961243
1772456325351108900,9.37210888671875,-0.340371698141098,0.844975471496582,0.615443766117096
1772456325361126700,9.382126708984375,-0.31800487637519836,0.7655381560325623,0.074129618704319
1772456325371145700,9.392145751953125,-0.277011901140213,0.5858730673789978,-0.516962468624115
1772456325381163500,9.40216357421875,-0.3158591687679291,0.21673816442489624,-0.9357490539550781
1772456325391181800,9.412181884765625,-0.33443310856819153,-0.13447019457817078,-1.0404586791992188
1772456325401201000,9.422200927734375,-0.24562174081802368,-0.3007052540779114,-0.9059232473373413
1772456325411218700,9.43221875,-0.09537605196237564,-0.2566445767879486,-0.6445057392120361
1772456325421237800,9.44223779296875,-0.004744953941553831,-0.06806906312704086,-0.3753776252269745
1772456325431255600,9.452255615234375,0.07354159653186798,0.12892548739910126,-0.24133539199829102
1772456325441274600,9.462274658203125,0.19296786189079285,0.18928922712802887,-0.23057834804058075
1772456325451292700,9.472292724609375,0.3338504135608673,0.25696176290512085,-0.24538978934288025
1772456325461311500,9.4823115234375,0.435970664024353,0.2957648038864136,-0.2402445524930954
1772456325471329800,9.492329833984375,0.45357149839401245,0.26413604617118835,-0.2658703029155731
1772456325481348900,9.502348876953125,0.3963252305984497,0.22744381427764893,-0.3405866026878357
1772456325491366700,9.51236669921875,0.3242694139480591,0.230913907289505,-0.4197551906108856
1772456325501385700,9.5223857421875,0.23294030129909515,0.21866948902606964,-0.4494590163230896
1772456325511403800,9.53240380859375,0.12045850604772568,0.08033611625432968,-0.470010370016098
1772456325521422600,9.542422607421875,-0.013522466644644737,-0.21151144802570343,-0.5172252655029297
1772456325531440600,9.552440673828125,-0.14052994549274445,-0.5685926079750061,-0.5155743956565857
1772456325541458700,9.562458740234375,-0.2170681357383728,-0.8998032808303833,-0.4390125274658203
1772456325551477800,9.572477783203125,-0.23505325615406036,-1.1505337953567505,-0.34527990221977234
1772456325561495800,9.582495849609375,-0.2192537933588028,-1.1785523891448975,-0.21348752081394196
1772456325571514600,9.5925146484375,-0.19500944018363953,-0.9119941592216492,-0.04843810573220253
1772456325581532700,9.60253271484375,-0.08918606489896774,-0.4836673438549042,0.07188404351472855
1772456325591551700,9.6125517578125,0.13996003568172455,-0.06041860207915306,0.1026342362165451
1772456325601569500,9.622569580078125,0.40885329246520996,0.283137708902359,0.10878640413284302
1772456325611588600,9.632588623046875,0.6807726621627808,0.49006372690200806,0.11396145820617676
1772456325621606700,9.642606689453125,0.879645049571991,0.5338996052742004,0.07969269901514053
1772456325631625700,9.652625732421875,0.9552196860313416,0.4129444360733032,-0.01474432460963726
1772456325641643800,9.662643798828125,0.9126014113426208,0.16411755979061127,-0.10630779713392258
1772456325651662600,9.67266259765625,0.7949325442314148,-0.04379062354564667,-0.11044235527515411
1772456325661680600,9.6826806640625,0.5937216877937317,-0.07247073948383331,0.030907316133379936
1772456325671698700,9.69269873046875,0.33285093307495117,0.0248454287648201,0.32798799872398376
1772456325681717800,9.7027177734375,0.11407650262117386,0.097086600959301,0.6968773603439331
1772456325691735800,9.71273583984375,-0.05608803778886795,0.23195306956768036,0.9697672128677368
1772456325701755000,9.7227548828125,-0.21811050176620483,0.6115656495094299,1.162458896636963
1772456325711772700,9.732772705078125,-0.3615188002586365,1.082440733909607,1.1875392198562622
1772456325721791700,9.742791748046875,-0.4465665817260742,1.3157954216003418,0.9090175628662109
1772456325731809500,9.7528095703125,-0.546106219291687,1.3634684085845947,0.40875208377838135
1772456325741828600,9.76282861328125,-0.5875138640403748,1.2581651210784912,-0.11087751388549805
1772456325751847000,9.772846923828125,-0.49165335297584534,0.953985869884491,-0.5357944369316101
1772456325761865700,9.78286572265625,-0.39244741201400757,0.36561793088912964,-0.804862916469574
1772456325771883800,9.7928837890625,-0.34545034170150757,-0.2974335551261902,-0.9275403618812561
1772456325781902800,9.80290283203125,-0.3085296154022217,-0.7102416157722473,-0.8561450242996216
1772456325791920600,9.812920654296875,-0.2310534566640854,-0.8221662640571594,-0.5564398169517517
1772456325801939700,9.822939697265625,-0.152686208486557,-0.8586790561676025,-0.1491820216178894
1772456325811957500,9.83295751953125,-0.08778178691864014,-0.8812668919563293,0.09529988467693329
1772456325821976600,9.8429765625,0.01866316609084606,-0.8783302307128906,0.022875754162669182
1772456325831995000,9.852994873046875,0.14347407221794128,-0.7086317539215088,-0.05013640224933624
1772456325842012700,9.8630126953125,0.21677304804325104,-0.4185836613178253,-0.07673259824514389
1772456325852031700,9.87303173828125,0.21276898682117462,-0.1192755252122879,-0.061585333198308945
1772456325862049500,9.883049560546874,0.18004700541496277,0.08570558577775955,0.009893110953271389
1772456325872068600,9.893068603515625,0.08844464272260666,0.19167302548885345,0.08446455001831055
1772456325882086700,9.903086669921874,-0.03593429923057556,0.12422554194927216,0.11626721918582916
1772456325892105500,9.91310546875,-0.15303455293178558,-0.13825960457324982,0.06609699130058289
1772456325902123800,9.923123779296875,-0.23947224020957947,-0.4417739510536194,-0.03778359666466713
1772456325912142800,9.933142822265625,-0.28214940428733826,-0.6463803648948669,-0.12917476892471313
1772456325922160600,9.94316064453125,-0.28428712487220764,-0.6707826256752014,-0.1717051863670349
1772456325932179000,9.953178955078124,-0.20968025922775269,-0.5534727573394775,-0.18765272200107574
1772456325942196700,9.96319677734375,-0.09724719077348709,-0.3941560983657837,-0.19367465376853943
1772456325952215800,9.9732158203125,-0.016863135620951653,-0.18563884496688843,-0.16422036290168762
1772456325962234000,9.983234130859374,0.03115871734917164,0.07834753394126892,-0.11142319440841675
1772456325972253000,9.9932529296875,0.06635425239801407,0.35194018483161926,-0.09386391192674637
1772456325982271000,10.00327099609375,0.09802776575088501,0.5763634443283081,-0.07239137589931488
1772456325992290000,10.0132900390625,0.15364468097686768,0.6010469794273376,-0.00535481795668602
1772456326002307800,10.023307861328124,0.20378747582435608,0.40456026792526245,0.07088083028793335
1772456326012326000,10.033325927734374,0.23834332823753357,-0.0072925337590277195,0.13892751932144165
1772456326022344700,10.0433447265625,0.28060850501060486,-0.41026076674461365,0.2125314325094223
1772456326032363000,10.053363037109374,0.31327882409095764,-0.690542459487915,0.33024609088897705
1772456326042382000,10.063382080078124,0.290874719619751,-0.8562619686126709,0.47519129514694214
1772456326052399900,10.07339990234375,0.24347737431526184,-0.8225074410438538,0.6396337747573853
1772456326062419000,10.0834189453125,0.1415558010339737,-0.42437097430229187,0.8605610728263855
1772456326072437000,10.09343701171875,0.012281966395676136,0.34271660447120667,1.1015316247940063
1772456326082455800,10.103455810546874,-0.12863095104694366,1.10453462600708,1.1535497903823853
1772456326092473900,10.113473876953124,-0.32155299186706543,1.5184510946273804,0.8668949007987976
1772456326102493000,10.123492919921874,-0.6042875051498413,1.7010467052459717,0.3078816533088684
1772456326112511000,10.133510986328124,-0.780271589756012,1.5510796308517456,-0.266553670167923
1772456326122530000,10.143530029296874,-0.7914459109306335,1.0602481365203857,-0.6751198768615723
1772456326132547800,10.1535478515625,-0.7962388396263123,0.3329217731952667,-0.9170672297477722
1772456326142567000,10.16356689453125,-0.7463802099227905,-0.3065018653869629,-0.995238721370697
1772456326152585000,10.1735849609375,-0.5016266107559204,-0.32329896092414856,-0.8557943105697632
1772456326162603000,10.18360302734375,-0.09940275549888611,-0.013976802118122578,-0.4814137816429138
1772456326172622000,10.1936220703125,0.22917592525482178,0.1295100599527359,-0.08837060630321503
1772456326182639900,10.203639892578124,0.4111097753047943,-0.007662447169423103,0.16505660116672516
1772456326192659000,10.213658935546874,0.5407428741455078,-0.14351455867290497,0.3333260416984558
1772456326202677000,10.223677001953124,0.568672239780426,-0.30590108036994934,0.4024004340171814
1772456326212695800,10.23369580078125,0.42275577783584595,-0.45067504048347473,0.2977136969566345
1772456326222713900,10.2437138671875,0.17237576842308044,-0.4343826174736023,0.06352891027927399
1772456326232732200,10.253732177734374,-0.04983440041542053,-0.23494939506053925,-0.16273832321166992
1772456326242750000,10.26375,-0.2048325091600418,-0.058819107711315155,-0.27260783314704895
1772456326252769000,10.27376904296875,-0.2912438213825226,-0.0023060310631990433,-0.2199387550354004
1772456326262786800,10.283786865234376,-0.2996588945388794,-0.11081546545028687,-0.08803877979516983
1772456326272806000,10.293805908203124,-0.25661182403564453,-0.2724328637123108,0.03888588026165962
1772456326282824000,10.303823974609376,-0.1733507513999939,-0.41767847537994385,0.12879952788352966
1772456326292842800,10.3138427734375,-0.06887307018041611,-0.39070624113082886,0.17498646676540375
1772456326302861000,10.323861083984376,-0.002329200739040971,-0.22753728926181793,0.22413375973701477
1772456326312880000,10.333880126953124,0.027949076145887375,-0.025415077805519104,0.31217679381370544
1772456326322898000,10.34389794921875,0.06321465224027634,0.03779611364006996,0.38478735089302063
1772456326332917000,10.3539169921875,0.08885237574577332,0.018004033714532852,0.3894612193107605
1772456326342934800,10.363934814453126,0.09147265553474426,-0.11584910750389099,0.3029465675354004
1772456326352952800,10.373952880859376,0.08875330537557602,-0.2529715299606323,0.14139041304588318
1772456326362972000,10.383971923828126,0.10900131613016129,-0.3610982894897461,0.002354234457015991
1772456326372990000,10.393989990234376,0.126573383808136,-0.4343109726905823,-0.028800755739212036
1772456326383009000,10.404009033203126,0.15173466503620148,-0.4480760395526886,0.032403212040662766
1772456326393026800,10.41402685546875,0.1639236956834793,-0.5010950565338135,0.1529245674610138
1772456326403046000,10.4240458984375,0.1561046540737152,-0.5501411557197571,0.2975864112377167
1772456326413064000,10.43406396484375,0.10324463248252869,-0.49483156204223633,0.43144914507865906
1772456326423082800,10.444082763671876,0.055517587810754776,-0.29267048835754395,0.6045463681221008
1772456326433101000,10.45410107421875,0.03183089941740036,0.03491084650158882,0.8618452548980713
1772456326443120000,10.4641201171875,0.010492854751646519,0.38767075538635254,1.1355247497558594
1772456326453138000,10.474137939453126,-0.0411200076341629,0.709149181842804,1.3533841371536255
1772456326463157000,10.484156982421876,-0.08240566402673721,0.9790576100349426,1.4175950288772583
1772456326473175000,10.494175048828126,-0.11930935084819794,0.9656310677528381,1.2165181636810303
1772456326483193900,10.50419384765625,-0.20678220689296722,0.7925375699996948,0.7364146113395691
1772456326493212000,10.5142119140625,-0.3242174983024597,0.6507481932640076,0.12730681896209717
1772456326503230000,10.52422998046875,-0.3700888454914093,0.5501773953437805,-0.3704174757003784
1772456326513249000,10.5342490234375,-0.39818093180656433,0.40374481678009033,-0.5846099257469177
1772456326523267000,10.54426708984375,-0.3528832197189331,0.26378291845321655,-0.5437213778495789
1772456326533286000,10.554285888671876,-0.23560532927513123,0.16970939934253693,-0.4330100119113922
1772456326543304000,10.564303955078126,-0.055327702313661575,0.20110169053077698,-0.29568037390708923
1772456326553323000,10.574322998046876,0.1430618166923523,0.27230048179626465,-0.1431984305381775
1772456326563340800,10.5843408203125,0.31007689237594604,0.24360200762748718,-0.0033361418172717094
1772456326573359900,10.59435986328125,0.38334420323371887,0.203680157661438,0.07738347351551056
1772456326583379000,10.60437890625,0.393010675907135,0.16533303260803223,0.026319755241274834
1772456326593397000,10.61439697265625,0.4008169174194336,0.11787842959165573,-0.09494408965110779
1772456326603416000,10.624416015625,0.39640459418296814,0.113336943089962,-0.18052449822425842
1772456326613433900,10.634433837890626,0.3752431273460388,0.051118310540914536,-0.2393800914287567
1772456326623453000,10.644452880859374,0.29189205169677734,-0.047395478934049606,-0.2786840796470642
1772456326633471000,10.654470947265626,0.16252659261226654,-0.16273166239261627,-0.39170119166374207
1772456326643489800,10.66448974609375,0.029204225167632103,-0.19533513486385345,-0.5556437969207764
1772456326653507800,10.6745078125,-0.08031348139047623,-0.15251311659812927,-0.6375314593315125
1772456326663527000,10.68452685546875,-0.18068082630634308,-0.07648252695798874,-0.5315664410591125
1772456326673545000,10.694544921875,-0.2956092953681946,-0.08672744035720825,-0.34070804715156555
1772456326683564000,10.70456396484375,-0.412289023399353,-0.20682482421398163,-0.1700281798839569
1772456326693582000,10.71458203125,-0.46044376492500305,-0.30372899770736694,-0.014275075867772102
1772456326703601000,10.724600830078124,-0.47968244552612305,-0.3169816732406616,0.12328305095434189
1772456326713619000,10.734618896484376,-0.4341548979282379,-0.23725755512714386,0.19193002581596375
1772456326723637000,10.744636962890626,-0.3683873414993286,-0.18315783143043518,0.2104158252477646
1772456326733655800,10.75465576171875,-0.28248336911201477,-0.07967299222946167,0.24685585498809814
1772456326743674000,10.764674072265626,-0.17437872290611267,0.013938452117145061,0.301451176404953
1772456326753693000,10.77469287109375,-0.030405042693018913,0.11773036420345306,0.3578934371471405
1772456326763711000,10.7847109375,0.046606384217739105,0.24907027184963226,0.3573956787586212
1772456326773730000,10.79472998046875,0.0740787535905838,0.314598947763443,0.2840961813926697
1772456326783747800,10.804747802734376,0.0709356889128685,0.304733008146286,0.24325579404830933
1772456326793767000,10.814766845703126,0.06470496207475662,0.25920945405960083,0.2597370445728302
1772456326803785000,10.824784912109376,0.06528286635875702,0.14381229877471924,0.27195829153060913
1772456326813804000,10.834803955078126,0.0651899203658104,0.04566708579659462,0.26019856333732605
1772456326823822000,10.844822021484376,0.08313190191984177,-0.042030807584524155,0.21520444750785828
1772456326833841000,10.8548408203125,0.10354450345039368,-0.016414126381278038,0.13868065178394318
1772456326843859000,10.86485888671875,0.13034175336360931,0.09280210733413696,0.035232555121183395
1772456326853878000,10.8748779296875,0.12885385751724243,0.1687099188566208,-0.08627310395240784
1772456326863895800,10.884895751953126,0.11867444962263107,0.26680800318717957,-0.257473886013031
1772456326873915000,10.894914794921876,0.16592931747436523,0.4140528440475464,-0.4061912000179291
1772456326883933000,10.904932861328126,0.2555265724658966,0.5397308468818665,-0.5361185669898987
1772456326893951000,10.914950927734376,0.3681047856807709,0.5560296773910522,-0.6036571264266968
1772456326903970000,10.924969970703126,0.4849744141101837,0.764057993888855,-0.5884222388267517
1772456326913987800,10.93498779296875,0.6042912006378174,1.0304185152053833,-0.38134416937828064
1772456326924007000,10.9450068359375,0.5113849639892578,0.7782641053199768,0.19703929126262665
1772456326934025200,10.955025146484376,0.40907007455825806,0.21146537363529205,0.4108258783817291
1772456326944044300,10.965044189453126,0.4029538333415985,-0.044865209609270096,0.40784767270088196
1772456326954062300,10.975062255859376,0.3403583765029907,-0.11980736255645752,0.09837371110916138
1772456326964081400,10.985081298828124,0.24063950777053833,-0.1507522314786911,-0.22816260159015656
1772456326974099500,10.995099365234376,0.12884239852428436,-0.17446793615818024,-0.32733285427093506
1772456326984118300,11.0051181640625,0.013787717558443546,-0.22490422427654266,-0.2951405644416809
1772456326994136300,11.01513623046875,-0.0936892107129097,-0.16503742337226868,-0.2271018624305725
1772456327004155400,11.0251552734375,-0.1831596940755844,-0.09808741509914398,-0.18331043422222137
1772456327014173200,11.035173095703126,-0.2613501250743866,-0.0759192630648613,-0.055699482560157776
