time,seconds_elapsed,z,y,x
1772455910267869200,0.081869140625,0.19054478368759153,-0.018600874769315122,-0.1252387285024859
1772455910277887200,0.09188720703125,0.18165888192057608,-0.015555150397866964,-0.06496542505389079
1772455910287905300,0.1019052734375,0.14487316583693027,0.01734210687987506,-0.05222200760850682
1772455910297923300,0.11192333984375,0.11261807892024517,0.05168086820282042,-0.07111770060593262
1772455910307941000,0.121941162109375,0.04541618178486824,0.061477747334912416,-0.05416848376747221
1772455910317959400,0.13195947265625,-0.009328969359397888,0.1134669508345425,0.0045980866462923585
1772455910327978500,0.141978515625,0.02641980489194393,0.13732384643591938,0.014159659185167402
1772455910337996300,0.151996337890625,0.06948503963649273,0.112161932650581,-0.025216237788461146
1772455910348014300,0.162014404296875,0.1080897878408432,0.072094126156345,-0.08604408811358734
1772455910358032100,0.1720322265625,0.17075813319981098,0.06766089294925332,-0.11655477904835715
1772455910368050400,0.182050537109375,0.24661621499955652,0.07155227436460554,-0.09862139174444601
1772455910378068200,0.192068115234375,0.34606033957004545,0.02775324545279145,-0.0977444262468256
1772455910388086300,0.202086181640625,0.3341863619029522,-0.011891659454256295,-0.10606812755381688
1772455910398105300,0.212105224609375,0.2471364394813776,-0.002403627075627446,-0.1386540903926827
1772455910408123100,0.222123046875,0.18894085562229154,-0.005722907691448927,-0.19958149210214612
1772455910418141400,0.232141357421875,0.1391506965368986,-0.035464404352009295,-0.2651255390278995
1772455910428159200,0.2421591796875,0.04263327306807041,-0.05266228045560419,-0.23601333498051388
1772455910438177300,0.25217724609375,-0.04903671036958694,-0.04611322413831949,-0.201762069277931
1772455910448195300,0.2621953125,-0.0506809704452753,-0.009234934400394558,-0.20741571112545207
1772455910458213400,0.27221337890625,-0.005194061511754989,-0.007288038116320967,-0.2327558858208358
1772455910468232400,0.282232421875,0.0735468822479248,-0.06315079511366785,-0.271255182623025
1772455910478250200,0.292250244140625,0.16542495547831057,-0.0934977833867073,-0.3101666769552976
1772455910488268300,0.302268310546875,0.18220365632176397,-0.08193813236579299,-0.3205543981200084
1772455910498286300,0.312286376953125,0.08750701853930949,-0.07787044453546405,-0.3347576589848846
1772455910508304400,0.322304443359375,-0.1198708265274763,-0.040592634085938335,-0.3403952995456755
1772455910518322200,0.332322265625,-0.30143443138003345,0.007603606871515512,-0.33037871324829754
1772455910528341200,0.34234130859375,-0.3679828330427408,0.0654403673555702,-0.3661290218695998
1772455910538359300,0.352359375,-0.300998962572217,0.08541048465147615,-0.3858422417949885
1772455910548377300,0.36237744140625,-0.2310503970772028,0.03335048093795776,-0.34545002565197647
1772455910558395400,0.3723955078125,-0.2104237886339426,0.008091901845112442,-0.2909271206899546
1772455910568413200,0.3824130859375,-0.16985796948969364,0.03305544351413846,-0.21597851841794324
1772455910578431500,0.392431396484375,-0.14804478161036969,0.05647920839525759,-0.1698506446997635
1772455910588449300,0.40244921875,-0.10700549973547457,0.005855667225643992,-0.19735219868011772
1772455910598468400,0.41246826171875,-0.11189560986459254,-0.08453772040493786,-0.24792903289748355
1772455910608486400,0.422486328125,-0.10669804122149944,-0.15832893280275165,-0.2836916530110873
1772455910618504200,0.432504150390625,-0.11196341440379619,-0.23793460363298652,-0.31858233086206017
1772455910628522500,0.4425224609375,-0.11314531766474246,-0.3016098610121757,-0.3118874363332987
1772455910638540300,0.452540283203125,-0.06958557740151881,-0.28594555115140974,-0.3178570487948134
1772455910648558300,0.462558349609375,0.030372341910004614,-0.22886574651449917,-0.32337267041113227
1772455910658576100,0.472576171875,0.055925885361433024,-0.19975904062613845,-0.18288162864856422
1772455910668595200,0.48259521484375,-0.11199907023906708,-0.29807708377614617,0.10351246998794376
1772455910678613500,0.492613525390625,-0.3483241928488016,-0.2586496210120618,0.07137194936163722
1772455910688631300,0.50263134765625,-0.5789134021550416,-0.1776744884595275,-0.042689021843299264
1772455910698649300,0.5126494140625,-0.5929068561941385,-0.03535553715005517,-0.19897183577120303
1772455910708667400,0.52266748046875,-0.4113175323784351,0.1102203701287508,-0.23343382161501794
1772455910718685400,0.532685546875,-0.12909808907806872,0.2515450497038662,-0.20048909020004793
1772455910728703200,0.542703125,0.12074001057744026,0.3183485951714217,-0.1186587290576659
1772455910738722300,0.552722412109375,0.33183541486263274,0.2386201016791165,-0.10021467055156827
1772455910748740000,0.562739990234375,0.37995793299674985,0.15634952248856424,-0.13534056366421282
1772455910758758400,0.57275830078125,0.20994155807495116,0.08208031731545924,-0.2624506937954575
1772455910768776400,0.5827763671875,-0.05369710339605808,0.04816007366552948,-0.41767300235237925
1772455910778794200,0.592794189453125,-0.16596563822627067,0.07236527124792337,-0.5004868946393951
1772455910788812300,0.602812255859375,-0.15531331130862236,0.12695581635236738,-0.46118240066785365
1772455910798830800,0.612830810546875,-0.09173603441119194,0.16465733210667965,-0.33781211465205996
1772455910808850000,0.622849853515625,0.044970191583037375,0.022106325607001782,-0.06221804430820047
1772455910818867700,0.63286767578125,0.15159107591509818,-0.15913009311780332,-0.027212197378650306
1772455910828885800,0.6428857421875,0.274362884581089,-0.2223202703937888,-0.10691058799363672
1772455910838903600,0.652903564453125,0.39920039360523224,-0.09501987838745117,-0.2640631704933941
1772455910848921900,0.662921875,0.5909522149950266,0.012275982596725224,-0.2456250120051205
1772455910858939600,0.672939697265625,0.8629635680139064,0.018623598057776688,-0.10391009100340307
1772455910868957700,0.682957763671875,1.1282517502576113,0.06707593266814947,0.05349924273639917
1772455910878976800,0.692976806640625,1.2389151879787443,0.1890450466491282,0.3120558517027646
1772455910888994800,0.702994873046875,1.2265204013079405,0.3220256762489676,0.5394860124561935
1772455910899012900,0.713012939453125,1.0934405491173267,0.393799703605473,0.673772537022829
1772455910909030700,0.72303076171875,0.9185819948613643,0.4463740865819156,0.7333712656781077
1772455910919048700,0.733048583984375,0.6635474956065416,0.3587633154071867,0.689166870835796
1772455910929066800,0.743066650390625,0.44809564967751503,0.33446225623488424,0.518093022750318
1772455910939085800,0.7530859375,0.6643307549387216,0.42366906442940233,0.3669615271709859
1772455910949103900,0.763103759765625,0.45036184104382987,0.4302909667871892,0.6137989106405526
1772455910959121700,0.77312158203125,0.02947276272177696,0.24745266582369804,0.6547483953401446
1772455910969139700,0.7831396484375,-0.3780792796432972,0.16810630351677536,0.1819958587899804
1772455910979157800,0.79315771484375,-0.7651742249131203,0.07928381846472621,-0.061573243598639964
1772455910989175800,0.80317578125,-0.8256663952767849,-0.015258067147433756,-0.1533680224597454
1772455910999193600,0.813193603515625,-0.681840692666173,-0.043817368286103005,-0.0834261059012264
1772455911009212700,0.823212646484375,-0.4641612338155508,-0.05799450832903385,0.0979898341089487
1772455911019230700,0.833230712890625,-0.2898492075264454,-0.03608735855594277,0.3100621206022799
1772455911029248800,0.843248779296875,-0.1793663870692253,0.04030541464239359,0.5165051690369844
1772455911039266800,0.853266845703125,-0.13160042728781698,0.10416019330695271,0.7118292959555983
1772455911049284600,0.86328466796875,-0.13814707245230673,0.14733604881912468,0.7582789124414324
1772455911059303000,0.873302978515625,-0.12450140893757343,0.13638766156435012,0.7642520685669034
1772455911069320700,0.88332080078125,-0.07792027502655982,0.11554229580387472,0.8086080007091164
1772455911079339800,0.89333984375,-0.09855740486383438,0.07814633886739611,0.7548859090022743
1772455911089357600,0.903357666015625,-0.18995617014467714,0.06090630412250757,0.6198962046023457
1772455911099375600,0.913375732421875,-0.27850597573518754,0.026508213827759027,0.41763073411323126
1772455911109394000,0.923393798828125,-0.36439796029329297,-0.022307401137053966,0.24929347138479352
1772455911119411700,0.93341162109375,-0.41751287988722324,-0.09098185504302382,0.14048041077069937
1772455911129429800,0.9434296875,-0.41289223434925076,-0.1137247249878943,0.0228591898009181
1772455911139447800,0.95344775390625,-0.2907429414957762,-0.11685060192346572,-0.10091335687283426
1772455911149467000,0.963466796875,-0.04744505726397037,-0.14053221402317284,-0.19714856586679816
1772455911159484700,0.973484619140625,0.1808610095411539,-0.18701587890908122,-0.2683868423787877
1772455911169502700,0.983502685546875,0.3376449779242277,-0.21893033569455145,-0.29524587893821297
1772455911179520500,0.9935205078125,0.39923312683105466,-0.24149171159267424,-0.32412257546298207
1772455911189538800,1.003538818359375,0.4509095380544662,-0.19719795796647666,-0.2365390210887417
1772455911199556900,1.013556884765625,0.49722003833055495,-0.20935747457668183,-0.0692492946518585
1772455911209575700,1.02357568359375,0.48664779091179367,-0.18085136492997406,0.036520927667617796
1772455911219593700,1.03359375,0.4747083467930555,-0.134958359413594,0.031754115124605596
1772455911229611500,1.043611572265625,0.426662985548377,-0.139844670150429,0.05175491981972009
1772455911239629800,1.0536298828125,0.3823042038619518,-0.20369433424845337,0.14265881425570695
1772455911249647600,1.063647705078125,0.3303852160543203,-0.22428937850967048,0.21779402514100074
1772455911259665700,1.073665771484375,0.305558817833662,-0.22670345391407606,0.24929226580839603
1772455911269683700,1.08368359375,0.2744453021675348,-0.2756920873582363,0.3220045603957027
1772455911279702800,1.093702880859375,0.17434359047114847,-0.34246289959996934,0.31673710485417395
1772455911289720800,1.103720947265625,-0.04004501014053821,-0.3815817348062992,0.19937563079912216
1772455911299738600,1.113738525390625,-0.23888649753034114,-0.39691067523285745,0.13068619851972907
1772455911309756700,1.123756591796875,-0.3824006499737501,-0.3866425253272056,0.04407079505790025
1772455911319774700,1.133774658203125,-0.36878655064105986,-0.3485740759566426,-0.0959105436168611
1772455911329792800,1.143792724609375,-0.21285306160748005,-0.3890631766028702,-0.05958890138100832
1772455911339810600,1.153810546875,-0.07960486711263656,-0.4809491408787667,0.03763195764943957
1772455911349829600,1.16382958984375,-0.017457915279269216,-0.5023889654010534,0.044725751835294064
1772455911359847700,1.17384765625,0.024576222851872442,-0.4881183018557727,0.0132108157614246
1772455911369865700,1.18386572265625,0.06521978340744972,-0.4979442609518766,0.04982723969276994
1772455911379883800,1.1938837890625,0.06185878254175186,-0.5609023830376565,0.11717833604048937
1772455911389901600,1.203901611328125,-0.06542144345939159,-0.6185714588046074,0.06327109702508896
1772455911399919900,1.213919921875,-0.17371347587406635,-0.5833508000805974,-0.03167630064804107
1772455911409937700,1.223937744140625,-0.175728322827816,-0.596243453270942,-0.05117686420343816
1772455911419956700,1.233956787109375,-0.1277314768999815,-0.6636161769285798,-0.03819485222920775
1772455911429974800,1.243974853515625,-0.036951135778427124,-0.7160457446068524,-0.05144837462119758
1772455911439992600,1.25399267578125,0.14702186830341815,-0.7281378950692713,-0.012769282539002596
1772455911450011000,1.264010986328125,0.3431201944649219,-0.7215706455081701,0.11222955452669411
1772455911460028700,1.274028564453125,0.5647463451147079,-0.7301411977156996,0.240834526325576
1772455911470046700,1.284046630859375,0.7284095516175031,-0.7675864006213844,0.37772958942279217
1772455911480064500,1.294064453125,0.799171771582961,-0.7908629390515387,0.47839525514487174
1772455911490083600,1.30408349609375,0.7722077768117189,-0.7817175095655023,0.5745742769721895
1772455911500102000,1.314101806640625,0.7287795539736748,-0.7581291287072003,0.5857573497656733
1772455911510119700,1.32411962890625,0.6877583922773599,-0.7761804067697375,0.571983493294008
1772455911520137700,1.3341376953125,0.6216472129881382,-0.8252021387659013,0.5711495632205158
1772455911530155800,1.34415576171875,0.537996285355091,-0.8375331394854932,0.6282979761142283
1772455911540173800,1.354173828125,0.44685587874948973,-0.8302770308773965,0.7077223720934241
1772455911550191600,1.364191650390625,0.3414443702071905,-0.8392601094085723,0.7179198679156601
1772455911560210700,1.374210693359375,0.2879600327789783,-0.8319031707745045,0.6961614789634942
1772455911570228700,1.384228759765625,0.2947872484505176,-0.8274798013743012,0.7360488143242895
1772455911580246800,1.394246826171875,0.251091314586997,-0.8436677697829902,0.7141707445152103
1772455911590264800,1.404264892578125,0.1597118385285139,-0.8718187093164771,0.612299100536853
1772455911600282600,1.41428271484375,0.1015630164206028,-0.872695126824826,0.5578585583623499
1772455911610300700,1.42430078125,0.07963350868523121,-0.8399827245946974,0.6116321975933388
1772455911620318700,1.434318603515625,0.010490998876094818,-0.8541247202590108,0.6517180146683007
1772455911630337800,1.444337890625,-0.04306348117887974,-0.8341100331690162,0.661556248724088
1772455911640355800,1.45435595703125,-0.07405132463872433,-0.8835698643215,0.6779802178457379
1772455911650373600,1.46437353515625,-0.13503916956484316,-0.9370952644124626,0.6478668191328645
1772455911660391700,1.4743916015625,-0.18139467802643774,-0.9872243731286376,0.5140445510771126
1772455911670409700,1.48440966796875,-0.24313304905891417,-1.034672206871584,0.3572094370286912
1772455911680427800,1.494427734375,-0.19405133050382137,-1.0909354344286024,0.24478426859835162
1772455911690446600,1.504446533203125,-0.10621347257494926,-1.1049879251785575,0.21590514265447855
1772455911700464600,1.514464599609375,0.01791091974377632,-1.1001130856838077,0.28654963625809177
1772455911710483000,1.52448291015625,0.1218359891206026,-1.0907060095869003,0.4451192642152309
1772455911720500700,1.534500732421875,0.16289806734919546,-1.0734748888008296,0.5840180683502927
1772455911730518800,1.544518798828125,0.1178320141762495,-1.0323543583832682,0.6834663941718637
1772455911740536600,1.55453662109375,0.0038631051689386364,-1.0178595306932925,0.6676891254559159
1772455911750555000,1.564554931640625,-0.13226619772017,-1.0341193222291767,0.5861118622917681
1772455911760572700,1.57457275390625,-0.20954875936508177,-1.0647221118941903,0.5335505579926073
1772455911770591700,1.584591796875,-0.15237141263782977,-1.03863563060984,0.5242295527439564
1772455911780609500,1.594609619140625,-0.09309095615148544,-0.9922665320143103,0.4530298912093043
1772455911790627800,1.6046279296875,0.04285889851748943,-0.9787553085342049,0.4123261979643255
1772455911800645600,1.614645751953125,0.19297464118301869,-0.9811156079247594,0.5494988724265247
1772455911810663700,1.62466357421875,0.2670125218182802,-0.9956782401539385,0.6231773451648652
1772455911820681500,1.634681396484375,0.19399580092430113,-0.9736344583891332,0.6049710226710885
1772455911830699800,1.64469970703125,0.15410627360641954,-0.8401128537803888,0.6039617725633084
1772455911840718600,1.654718505859375,0.04605740229785442,-0.6752512312732637,0.6278763897012919
1772455911850736600,1.664736572265625,-0.15894786841869354,-0.5021138017214835,0.5366489258667454
1772455911860754400,1.67475439453125,-0.3961509429067373,-0.3723189625509083,0.418814865863882
1772455911870772500,1.6847724609375,-0.6336538771241903,-0.2755361661441624,0.3204566733665764
1772455911880790800,1.694790771484375,-0.8729594768494368,-0.193485951706022,0.18335037867147475
1772455911890808600,1.70480859375,-1.0458458542495965,-0.03189531369358301,0.11144576547155156
1772455911900827600,1.71482763671875,-1.0679723458617925,0.16072423044145107,0.06809137505469844
1772455911910845400,1.724845458984375,-0.8694155206322669,0.31093554243594407,0.0820908387094736
1772455911920863700,1.73486376953125,-0.5068476983755826,0.426789826798439,0.17090470206364988
1772455911930881500,1.744881591796875,-0.17122399714589118,0.48156595760285853,0.22064935977319255
1772455911940899600,1.754899658203125,0.06591010375916957,0.5470658731259406,0.22197711951192467
1772455911950917400,1.76491748046875,0.22504677274823187,0.5803479650028049,0.1906286077798344
1772455911960935700,1.774935791015625,0.2746633288323879,0.5756674059711396,0.14931640898138285
1772455911970953700,1.78495361328125,0.2527554484069347,0.5025298351764679,0.06460594409173354
1772455911980972500,1.79497265625,0.18228373582065105,0.5005401226639747,-0.03566478576231748
1772455911990990600,1.804990478515625,0.05138064314723015,0.4814296178720891,-0.1019552671412006
1772455912001008400,1.81500830078125,-0.09303893370330334,0.402849709893018,-0.23206735556740313
1772455912011026700,1.825026611328125,-0.24411153870224953,0.2722327406845987,-0.4385641069507226
1772455912021044500,1.83504443359375,-0.4228992491006851,0.22909692492187023,-0.6892194778058678
1772455912031062500,1.8450625,-0.5831061776697636,0.2462839143052697,-0.8569624279029667
1772455912041081600,1.85508154296875,-0.6815548614621162,0.3442215798355639,-0.9161903504844754
1772455912051099600,1.865099609375,-0.7358037535220384,0.5156491367295384,-0.9875712138049304
1772455912061117700,1.87511767578125,-0.7058703875511885,0.6610597704440355,-1.0287982733368872
1772455912071135500,1.885135498046875,-0.6174509303420782,0.8110251448534429,-1.060732311605662
1772455912081153500,1.895153564453125,-0.43127427873611446,0.9605898295074701,-1.1374192454449832
1772455912091171600,1.905171630859375,-0.22912264388501644,1.051591850555688,-1.1379219342701137
1772455912101189600,1.915189697265625,-0.04820025954544544,1.067012853179872,-1.1013389742169528
1772455912111208700,1.925208740234375,0.08884966531991959,1.1026799404971301,-1.1254185726583004
1772455912121226500,1.9352265625,0.16236439886391163,1.1634594033695758,-1.184247559050098
1772455912131244500,1.94524462890625,0.2710071444123983,1.2145030696474015,-1.1812814027208833
1772455912141262600,1.9552626953125,0.4253822980880737,1.2418236227713524,-1.0793676731664688
1772455912151280600,1.96528076171875,0.5256804091393947,1.2145445707015692,-0.9250530175063758
1772455912161298400,1.97529833984375,0.6143155549257994,1.081507534739375,-0.8076025499936192
1772455912171316700,1.985316650390625,0.647457361549139,0.9313584743261337,-0.6777601453542709
1772455912181335800,1.995335693359375,0.6099889238983393,0.758725487165153,-0.5286944962635636
1772455912191353600,2.005353515625,0.5683060834228992,0.6300513225875795,-0.46509208492487664
1772455912201371600,2.01537158203125,0.5446317778468132,0.5351125466123223,-0.4253739321185276
1772455912211389400,2.025389404296875,0.4889829558610916,0.4508399799495935,-0.39625579152069984
1772455912221407700,2.03540771484375,0.3683101653009653,0.33727059165388346,-0.37694611089490354
1772455912231425500,2.045425537109375,0.22086218053996562,0.2656402105517685,-0.38637313380129634
1772455912241443600,2.055443603515625,0.09789689512848854,0.24580533700808882,-0.451908632094413
1772455912251461600,2.065461669921875,0.10338730923831463,0.1907226244725287,-0.4532747328158468
1772455912261480400,2.07548046875,0.22302666509747504,0.16189356648176909,-0.37323724643960593
1772455912271498800,2.085498779296875,0.39016602327823635,0.1672979097433388,-0.302022405602131
1772455912281516500,2.0955166015625,0.5008744691848754,0.10029679587706923,-0.2547668430282734
1772455912291534600,2.10553466796875,0.6315981136381625,0.004637742803245783,-0.20628307210002092
1772455912301552600,2.115552734375,0.7634937244802713,-0.09565218494161963,-0.22466341772014273
1772455912311570700,2.12557080078125,0.8746323784977197,-0.23621990866959094,-0.2651849410649389
1772455912321589800,2.13558984375,0.972356255146861,-0.35407559598237276,-0.2868574052993208
1772455912331607600,2.145607666015625,0.9354419442474842,-0.4616064347662031,-0.3162777071814984
1772455912341625600,2.15562548828125,0.8772469449102878,-0.6199589676402509,-0.23245408986266702
1772455912351643600,2.1656435546875,0.8144950129210948,-0.6810933814302086,-0.18606188438618554
1772455912361661700,2.17566162109375,0.6551058304756879,-0.6691859398849308,-0.09800028243772685
1772455912371679500,2.185679443359375,0.5393488690078259,-0.6630586891762912,-0.11336688799355178
1772455912381697500,2.195697509765625,0.5302759202361107,-0.69217372450158,-0.0652092437471263
1772455912391715600,2.205715576171875,0.4363748167455196,-0.7384598209887743,-0.06290171572342515
1772455912401734700,2.215734619140625,0.32402561789453027,-0.7184808627992868,-0.12420388729572296
1772455912411752700,2.225752685546875,0.009047229808568953,-0.7790139496952295,-0.16031225210707634
1772455912421770500,2.2357705078125,-0.34498774190247056,-0.7970255533345043,-0.1961309497894719
1772455912431788800,2.245788818359375,-0.3937280996739864,-0.7491480960026383,-0.14191475442275403
1772455912441806600,2.255806640625,-0.21377426810562608,-0.6917205739066005,-0.010744462180510162
1772455912451824600,2.26582470703125,0.08425590778887271,-0.6677730043470859,0.04746891306359321
1772455912461843500,2.275843505859375,0.3393400914043188,-0.7812202275678515,0.19219076079633085
1772455912471861500,2.285861572265625,0.439369322386384,-0.9122497230999171,0.27894359996747226
1772455912481879800,2.2958798828125,0.41291970687806606,-0.9368329602144658,0.22916662915721533
1772455912491897600,2.305897705078125,0.3240542594671249,-0.9252671717137098,0.13684347904045133
1772455912501915600,2.31591552734375,0.18461013294160364,-0.8946366172589361,0.025926943341083822
1772455912511933400,2.325933349609375,0.0496831915795803,-0.9320653074212372,-0.16033271037321536
1772455912521951700,2.33595166015625,0.031099487140774724,-0.9996043275564909,-0.32583537073023616
1772455912531969500,2.345969482421875,0.054474517509341236,-1.0537528279818593,-0.46731454674731937
1772455912541988600,2.355988525390625,-0.018145897543430326,-1.0295216191753744,-0.588595678464137
1772455912552006400,2.36600634765625,-0.19077099365890024,-0.9293601401157676,-0.6853134102780372
1772455912562024700,2.376024658203125,-0.36994507302641866,-0.7888976303279399,-0.728738783571869
1772455912572042800,2.386042724609375,-0.43310090964138503,-0.6283768135040998,-0.6731029671981931
1772455912582060500,2.396060546875,-0.29563889684379097,-0.42944341004714365,-0.5144093658015132
1772455912592078600,2.40607861328125,-0.12477028900682925,-0.38774771009013054,-0.2739597836729139
1772455912602096600,2.4160966796875,-0.11688099706172943,-0.47744069436639547,-0.05206545620677061
1772455912612115700,2.42611572265625,-0.23130115696787834,-0.5470999215260147,-0.004995223604561761
1772455912622133500,2.436133544921875,-0.41887949206531044,-0.5549358758486806,-0.07896132677840069
1772455912632151600,2.446151611328125,-0.6363420932948589,-0.5313641538642346,-0.16103881281595675
1772455912642169600,2.456169677734375,-0.8356716564625501,-0.42560470866709943,-0.17481197516787797
1772455912652187600,2.466187744140625,-1.0069330630093811,-0.28530820309594274,-0.197925176262483
1772455912662205700,2.476205810546875,-1.091944173079729,-0.1001170553959906,-0.25937249192651357
1772455912672223500,2.486223388671875,-1.090136831396818,0.08973726180940866,-0.28094827258707955
1772455912682242600,2.49624267578125,-0.9761620771706103,0.2701671864569187,-0.2505813375045545
1772455912692260600,2.506260498046875,-0.680238518166542,0.40760158059522505,-0.11194407038250938
1772455912702278700,2.516278564453125,-0.31678456072509287,0.5050669524386525,0.07775226151589304
1772455912712296400,2.52629638671875,0.006237433084845543,0.5626577022723853,0.2968091461995616
1772455912722314500,2.536314453125,0.23947861820459365,0.579882539448142,0.5070449745133518
1772455912732332800,2.546332763671875,0.3821832078307867,0.607314005600661,0.5936166484313086
1772455912742350600,2.5563505859375,0.4544745370596647,0.5864623562298715,0.5967342324625701
1772455912752369700,2.56636962890625,0.44725218459069727,0.5422692864991724,0.5094233940824866
1772455912762387500,2.576387451171875,0.4380822051852941,0.4037139255069196,0.44163726731836794
1772455912772405500,2.586405517578125,0.4066133002102375,0.17570844908356664,0.3968995327843353
1772455912782423600,2.596423583984375,0.30582711338102814,-0.054867754610627886,0.24229641557168213
1772455912792441600,2.606441650390625,0.16280454384684562,-0.2361947742283344,0.05701901436038315
1772455912802459400,2.61645947265625,0.0107575408577919,-0.29671953168734905,-0.13701839721594006
1772455912812477400,2.6264775390625,-0.12047405311763286,-0.20385975394323466,-0.3024471886191517
1772455912822496500,2.63649658203125,-0.18400047661066055,0.020286708964407443,-0.3266006560143083
1772455912832514600,2.6465146484375,-0.09630641106665133,0.3964920114293694,-0.2185814857242629
1772455912842532400,2.656532470703125,0.007490063494443893,0.8330978604517877,-0.057938522091787306
1772455912852550400,2.66655029296875,0.0440671052634716,1.2139198629319667,0.11141538859959692
1772455912862568400,2.676568359375,0.040597383326292036,1.4376257424652576,0.3044485367705114
1772455912872586500,2.68658642578125,0.0421498734652996,1.5066240214981137,0.43153059158474205
1772455912882604300,2.696604248046875,0.17716858476400374,1.4484325292922555,0.5032693284321577
1772455912892622600,2.70662255859375,0.34555881978869435,1.2674307961061597,0.5380473214225843
1772455912902641400,2.716641357421875,0.5156558587312698,1.127811897535622,0.5214463882988318
1772455912912659500,2.726659423828125,0.6671084029585123,1.03178664149791,0.46754024526197463
1772455912922677500,2.736677490234375,0.791627932074666,0.9560153611987828,0.3610720672735944
1772455912932695300,2.7466953125,0.8785855000376701,0.8871044681884348,0.3410884694416076
1772455912942713600,2.756713623046875,0.8966068944185972,0.8319375845007598,0.3152347009345889
1772455912952731400,2.7667314453125,0.7793816139638423,0.752063691188395,0.37753991206958887
1772455912962750500,2.77675048828125,0.5344283637404441,0.7559940163746476,0.47965983172059057
1772455912972768500,2.7867685546875,0.25703648672699925,0.8147045640185475,0.5834948116611689
1772455912982786300,2.796786376953125,0.019139000234007834,0.8244524894423783,0.7283579675607382
1772455912992804600,2.8068046875,-0.14286182601451872,0.7679661937192082,0.8544534407567232
1772455913002822400,2.816822509765625,-0.2536702251642942,0.654265434128791,0.8005858761645853
1772455913012840400,2.82684033203125,-0.29078151994049545,0.5165593834422528,0.6402768023952842
1772455913022858500,2.8368583984375,-0.19617782113850116,0.3718840782649815,0.5094823211954906
1772455913032876500,2.84687646484375,-0.05184241544008255,0.22073870029076934,0.45917102431282397
1772455913042895400,2.856895263671875,0.0987000282049179,0.07163987958282232,0.49404670552406454
1772455913052913400,2.866913330078125,0.23624679667651652,-0.040090456717461344,0.5835596935909241
1772455913062931500,2.876931396484375,0.3009872721344232,-0.16559285939112306,0.626206629858166
1772455913072949500,2.886949462890625,0.2879442506879568,-0.2803754228688776,0.6197991009034216
1772455913082967600,2.896967529296875,0.28015608102977274,-0.3716153443261981,0.5305396492062137
1772455913092985300,2.9069853515625,0.286062090203166,-0.4761063770227134,0.4384000389628112
1772455913103003400,2.91700341796875,0.3290378930985927,-0.5788840299300849,0.36057672150470316
1772455913113022200,2.927022216796875,0.46283495364785193,-0.6853155291698872,0.3348089507807046
1772455913123040500,2.93704052734375,0.5180898078799248,-0.8019483966894447,0.29239688271526243
1772455913133058600,2.94705859375,0.47765609068274495,-0.8469520521506667,0.19348306562919168
1772455913143076400,2.957076416015625,0.35681788042783735,-0.8405271336697041,0.12750965084284543
1772455913153094700,2.9670947265625,0.22001462379992007,-0.7983291832789778,0.1684589528793469
1772455913163112400,2.977112548828125,0.15571721593439578,-0.7786923165254295,0.2592832427404821
1772455913173130500,2.987130615234375,0.1222539222717285,-0.7839457070089876,0.4016758072754368
1772455913183149300,2.9971494140625,0.04403554108142853,-0.9002947891511023,0.5630410755667835
1772455913193167400,3.00716748046875,-0.007416413736343383,-0.9821963888987898,0.6280759308613837
1772455913203185400,3.017185302734375,-0.0005927051961421966,-1.0693819203987718,0.6445775683291256
1772455913213203500,3.027203369140625,-0.023162264400720594,-1.0841367141991853,0.4619401602325961
1772455913223221500,3.037221435546875,-0.07456979555487632,-1.1373029255889355,0.2556692900270223
1772455913233239300,3.0472392578125,-0.040671033084392544,-1.2147377551861107,0.09561652910634874
1772455913243257600,3.057257568359375,0.05281213725507259,-1.3033384141810238,-0.09171846222188323
1772455913253276400,3.0672763671875,0.14365385317504406,-1.39233391771242,-0.19938187787681816
1772455913263294500,3.07729443359375,0.09521510869860648,-1.4057570245176554,-0.4525315132331103
1772455913273312300,3.087312255859375,-0.03604863398075103,-0.8707416546694934,-1.403716312470287
1772455913283330600,3.09733056640625,-0.5036626385986804,-1.2087642337344586,-0.2820125773503445
1772455913293348400,3.107348388671875,-0.23980887307226656,-1.5150376295782624,0.3426294518059119
1772455913303366400,3.117366455078125,0.13029577443003654,-1.1514014474377035,0.45732568870708346
1772455913313384400,3.127384521484375,0.2956336361467838,-1.0107831625662744,0.6289838394865394
1772455913323403300,3.1374033203125,0.24672785868048666,-0.9162038675531744,0.8631162012923508
1772455913333421600,3.147421630859375,0.14605740718543528,-0.8212102926507592,0.9055047788843512
1772455913343439400,3.157439453125,0.017761282140016554,-0.7142379645325243,0.7972055860765278
1772455913353457400,3.16745751953125,-0.11065291632711886,-0.5501677846640348,0.5836920512663201
1772455913363475200,3.17747509765625,-0.24195757553875444,-0.38264147299230095,0.35366475015915927
1772455913373493500,3.187493408203125,-0.2756102542936802,-0.1961950645342469,0.162471275038179
1772455913383511600,3.197511474609375,-0.32508477155864235,-0.04671162842288613,-0.024643534200731662
1772455913393530400,3.2075302734375,-0.48708267519772047,-0.07710852025225758,-0.03758592655062675
1772455913403548400,3.21754833984375,-0.6714508160769939,-0.09303659561574458,0.15178519198140128
1772455913413566500,3.22756640625,-0.8751344828009605,0.02501169165968895,0.23204061369094997
1772455913423584500,3.23758447265625,-0.9924667307615279,0.23588132436498999,0.24971792560825123
1772455913433602300,3.247602294921875,-0.9790326641708612,0.4058721264541149,0.2828222497654147
1772455913443620400,3.257620361328125,-0.9521715452522039,0.45978798716738817,0.25285576697625217
1772455913453638400,3.267638427734375,-0.8811427833050489,0.5208601493760943,0.16054781442862004
1772455913463656400,3.277656494140625,-0.7351730544030666,0.6374586762346327,-0.014539205687819048
1772455913473675500,3.287675537109375,-0.490854594951868,0.6735081869982182,-0.12561567205609753
1772455913483693300,3.297693359375,-0.24685879158377647,0.6714049311086535,-0.18856425912855193
1772455913493711400,3.30771142578125,-0.05878244383633136,0.6392663101784885,-0.2214948341540061
1772455913503729400,3.3177294921875,0.0495265397131443,0.6494741081990302,-0.3122954326122999
1772455913513747500,3.32774755859375,0.16940847215652466,0.7092769811242818,-0.3730476786842569
1772455913523765200,3.33776513671875,0.25355507435202596,0.7939772716797888,-0.2738451808499172
1772455913533783600,3.347783447265625,0.19763795681893825,0.8272416817694902,-0.09346017305636778
1772455913543802600,3.357802734375,0.09464169272482395,0.8702396964967251,0.010650577918556519
1772455913553820400,3.3678203125,-0.0697124186515808,0.9049318013019859,0.08399536628969945
1772455913563838500,3.37783837890625,-0.15682546943724154,0.967611690968275,0.11980806348957121
1772455913573856300,3.387856201171875,-0.09699147072136402,1.0498987829022108,0.15976429936811326
1772455913583874600,3.39787451171875,0.1320873340219259,1.1394150954373181,0.09202181081632152
1772455913593892400,3.407892333984375,0.4412123199045658,1.1351441401198505,-0.1083875286784023
1772455913603910400,3.417910400390625,0.6069347970247269,1.0593205451115966,-0.3684466511622071
1772455913613929500,3.427929443359375,0.5847416699171066,0.9710574475079774,-0.42413178657032546
1772455913623947300,3.437947265625,0.32744682451486584,0.9100821698024868,-0.3217340363586321
1772455913633965600,3.447965576171875,-0.11774316684901713,1.015622565421462,-0.24334566889628767
1772455913643983400,3.4579833984375,-0.644081747636199,1.2151666481226682,-0.23681504328483713
1772455913654001400,3.46800146484375,-1.096836036774516,1.3732257510080932,-0.2507720195047557
1772455913664019500,3.47801953125,-1.3964374075084924,1.4224050847187637,-0.25870235584629697
1772455913674037500,3.48803759765625,-1.5689643039464949,1.2860463569879532,-0.3297289075700566
1772455913684056600,3.498056640625,-1.608058296972513,1.059729710434377,-0.5360744504470378
1772455913694074400,3.508074462890625,-1.4503490304380655,0.8044201936304569,-0.7767105681236833
1772455913704092400,3.518092529296875,-1.1472913817703723,0.5619608060494065,-0.9692446989975869
1772455913714110500,3.5281103515625,-0.788203802844882,0.38598698402792214,-1.028619701899588
1772455913724128500,3.53812841796875,-0.4730559034109115,0.22125614829361437,-0.9476460306517779
1772455913734146300,3.548146240234375,-0.24139292739331722,0.08815349974930285,-0.8657084097426384
1772455913744164400,3.558164306640625,-0.13953998811542986,0.06041647477895021,-0.7679655361320823
1772455913754183400,3.568183349609375,-0.1862163990944624,0.0981686978071928,-0.7303055214319377
1772455913764201500,3.578201416015625,-0.14860475358068942,0.19684563739746808,-0.7994596486136317
1772455913774219500,3.588219482421875,0.08742576999664306,0.3047431175366044,-0.8048592426348478
1772455913784237300,3.5982373046875,0.42967736493349074,0.29584318724423647,-0.7715098576754331
1772455913794255600,3.608255615234375,0.8186848658263682,0.19804390727132556,-0.7787043722894043
1772455913804274000,3.61827392578125,1.130368888542056,0.061032268589735025,-0.8352925209518521
1772455913814292000,3.6282919921875,1.434187584710121,-0.020165420672297478,-0.8808861051302402
1772455913824310800,3.638310791015625,1.7535007871299981,-0.08932312805056572,-0.8121208311356604
1772455913834328800,3.648328857421875,2.6749381714224816,-0.6362099913477898,-0.3530951701102778
1772455913844347000,3.658346923828125,2.674682735356688,-0.634075901928544,-0.3429896268878132
1772455913854365000,3.668364990234375,2.5179104574114084,-0.8970806494101882,-0.29471084047975016
1772455913864382700,3.6783828125,2.030508048740029,-0.9738225283071398,-0.6340199339576065
1772455913874400800,3.68840087890625,1.4130845909267664,-0.7769406505525112,-0.9480246547058224
1772455913884419000,3.698419189453125,1.0082657729178666,-0.5904305292084813,-0.9718321582075208
1772455913894436900,3.708436767578125,0.8430886547207832,-0.47533027808368206,-0.9280147168561815
1772455913904456000,3.7184560546875,0.7447036838144063,-0.4598161903485656,-0.8998379852943121
1772455913914473700,3.7284736328125,0.7332511464297771,-0.4961787125840783,-0.8131908715199678
1772455913924491800,3.73849169921875,0.7921358815968036,-0.4109326247140765,-0.6695294926255941
1772455913934509800,3.748509765625,0.7533288888186216,-0.3128394763611257,-0.3117849258068949
1772455913944528000,3.75852783203125,0.6202589735001325,-0.289213832232356,0.0015075915513560174
1772455913954545700,3.768545654296875,0.4617553417176008,-0.2726065424330532,0.10061145131681114
1772455913964564000,3.77856396484375,0.2977472672998905,-0.2870949403822422,0.06319481691848486
1772455913974582800,3.788582763671875,0.1219406185388565,-0.3973316771239042,-0.08599033036604523
1772455913984600800,3.798600830078125,-0.04879238021969795,-0.5078907776877284,-0.2303585423555225
1772455913994619000,3.808618896484375,-0.12107084996700286,-0.5464170538283885,-0.3793674928229302
1772455914004636700,3.81863671875,-0.052426352807879446,-0.6101835696876049,-0.514860872428678
1772455914014655000,3.828655029296875,0.1317488958477974,-0.6682398912064731,-0.6354997972518205
1772455914024672800,3.8386728515625,0.35528409498929975,-0.6845028976127505,-0.7016661407943815
1772455914034690800,3.84869091796875,0.6203092423826456,-0.6592531594134867,-0.6692382545940577
1772455914044710000,3.8587099609375,0.8345762624412775,-0.6755073979914188,-0.6227820622369646
1772455914054727700,3.868727783203125,0.9737275435000657,-0.7018900857433676,-0.6751467479854821
1772455914064746000,3.87874609375,1.0608651442050934,-0.6741700119078159,-0.7790523820094764
1772455914074763800,3.888763671875,1.1927438039124012,-0.5683166048169136,-0.8172542485013604
1772455914084781800,3.89878173828125,1.3410802619457245,-0.4815592356011271,-0.7455055017165839
1772455914094800000,3.9087998046875,1.3905237995505333,-0.4538514367252588,-0.6692653617966919
1772455914104818000,3.91881787109375,1.2968793011695146,-0.47092824373245235,-0.6109745374022051
1772455914114837000,3.9288369140625,1.1402250966459513,-0.5080393923781812,-0.5222751672731712
1772455914124854800,3.938854736328125,0.9022621437013149,-0.5095151640191674,-0.38650088836681096
1772455914134872800,3.948872802734375,0.47573009105622766,-0.4233297494724393,-0.3404160135401413
1772455914144891000,3.958890869140625,-0.11594751560389994,-0.17306421818509696,-0.23357509324923156
1772455914154909000,3.968908935546875,-0.7515197935700416,0.16449863441362977,-0.05342522765211761
1772455914164926700,3.9789267578125,-1.2573761428207157,0.5460170947253704,0.0962399947669357
1772455914174944800,3.98894482421875,-1.5189385825395583,0.8765291520297527,0.23730068964362144
1772455914184963800,3.9989638671875,-1.458057705119252,1.0308895465277135,0.40448279098756607
1772455914194982000,4.00898193359375,-1.188840366733074,1.0950991299793122,0.5269764402993024
1772455914205000000,4.019,-0.8642401638209819,1.004020682694018,0.6589698124274611
1772455914215017700,4.029017822265625,-0.633283290246129,0.7867953973516821,0.8060171074330806
1772455914225036000,4.0390361328125,-0.6759183168798685,0.5265884638950228,1.0797887481227517
1772455914235053800,4.0490537109375,-1.0091180058330298,0.31648323969095943,1.3718958175785838
1772455914245072000,4.05907177734375,-1.552265098080039,0.2196273780480027,1.421476717827469
1772455914255091000,4.069091064453125,-2.153008054727316,0.31179099022150036,1.1881560377307236
1772455914265108700,4.079108642578125,-2.5444541809439656,0.46089887101873755,0.9145579269770532
1772455914275127000,4.089126953125,-2.4733605370670557,0.5755106079742313,0.6175855165071785
1772455914285144800,4.099144775390625,-1.9157780922323464,0.6729096365831791,0.23324604395795612
1772455914295163000,4.109162841796875,-1.0464444046646355,0.6198559456571936,-0.0672523486809805
1772455914305180700,4.1191806640625,-0.25347441033124923,0.4941019063100218,-0.22201204469483343
1772455914315199000,4.129198974609375,0.26457506553828714,0.49483007445409893,-0.22912951201722023
1772455914325216800,4.139216796875,0.49887540432214733,0.6587531009368598,-0.1973230821834877
1772455914335235800,4.14923583984375,0.628087475168705,0.8922169888965785,-0.0994716336319223
1772455914345254000,4.15925390625,0.7516489729076623,1.0663951596729457,0.12242299522832036
1772455914355272000,4.16927197265625,0.770821875411272,1.087400246039778,0.34454734119120983
1772455914365290000,4.1792900390625,0.638928602656722,1.0426828601740301,0.338407888588123
1772455914375307800,4.189307861328125,0.4060287783205509,0.9728991298519074,0.1727160623345524
1772455914385325800,4.199325927734375,0.1230646541327238,0.9329507119536399,0.07320497347507625
1772455914395344000,4.20934375,-0.017031214299798012,0.9521699378170072,0.03416742334403097
1772455914405363000,4.219363037109375,0.019607202267646787,0.9893234642997384,0.04856850833594799
1772455914415381000,4.229381103515625,0.20481062492728233,0.9980671811170876,0.2117247882299125
1772455914425398800,4.239398681640625,0.43839667796194554,0.9883880831457674,0.3503222347982228
1772455914435416800,4.249416748046875,0.6169412272542715,0.957393371553719,0.4319583154775202
1772455914445435000,4.259434814453125,0.6743740100473166,0.8899208407834172,0.5440414107382298
1772455914455453000,4.269452880859375,0.6528618509411811,0.7986042008280754,0.5457303136732429
1772455914465470700,4.279470703125,0.5690753142297268,0.6707564040720463,0.4244230246018618
1772455914475489800,4.28948974609375,0.4431529325783252,0.5099949103601277,0.2445630818620324
1772455914485507800,4.2995078125,0.31691081745326516,0.37222090900391336,0.08360204699002206
1772455914495526000,4.30952587890625,0.24193594822883605,0.2899161352828145,0.05961111321281641
1772455914505544000,4.3195439453125,0.19431845700740813,0.26847309589013457,0.18138733497019857
1772455914515561700,4.329561767578125,0.12671323976814747,0.303937207981199,0.31593309499491007
1772455914525580000,4.339580078125,0.09874328282475471,0.29197336007356645,0.37096575784366576
1772455914535597800,4.349597900390625,0.0804179370611906,0.19856690823212264,0.36008484633453186
1772455914545617000,4.359616943359375,0.12321136912703513,0.07012991341128945,0.3124217624057084
1772455914555634700,4.369634765625,0.17648527867496014,-0.06754705731123685,0.30182891059033573
1772455914565652700,4.37965283203125,0.2456710431039333,-0.16525266765132546,0.2014869238646701
1772455914575671000,4.389671142578125,0.3205313460379839,-0.26403584409505126,0.07884842272214591
1772455914585688800,4.399688720703125,0.321795666885376,-0.3634409518294036,0.020376506139710544
1772455914595707000,4.409706787109375,0.3001619272261858,-0.41031946125179525,-0.021240027633868157
1772455914605725000,4.419724853515625,0.24107202487587928,-0.4350184337005019,-0.11928184765838086
1772455914615744000,4.429743896484375,0.33957799181342124,-0.39518078270032997,-0.22287611417826264
1772455914625761800,4.43976171875,0.5157669178903103,-0.35868586625680327,-0.16795893093533812
1772455914635779800,4.44977978515625,0.7060621107310057,-0.3497472113892436,-0.04371047384552657
1772455914645797600,4.459797607421875,0.9012164340406655,-0.326038419021666,0.1014664607109502
1772455914655816000,4.46981591796875,1.0474708251029252,-0.34522944170385594,0.2315615249371156
1772455914665834000,4.479833984375,1.0676613802164792,-0.42034766492173076,0.3352128188738599
1772455914675851800,4.489851806640625,0.8764011417359113,-0.5016410696431994,0.3263455852746963
1772455914685870800,4.499870849609375,0.5583727184295654,-0.6015268005013465,0.20912783053927123
1772455914695888600,4.509888671875,0.24411446131169795,-0.6703868401072919,0.022989172856137156
1772455914705907000,4.519906982421875,-0.02590484110713005,-0.7328572517413645,-0.11092636297363788
1772455914715924700,4.5299248046875,-0.1146422782242298,-0.7987543498884886,-0.1360992000117898
1772455914725942800,4.53994287109375,-0.07562018139064311,-0.9165341224208473,-0.09050415452867745
1772455914735961000,4.549961181640625,0.030413258442282674,-1.0365439190275967,-0.1166708614423871
1772455914745979000,4.559978759765625,0.07377601482868194,-1.2418269837722182,-0.2713426599770784
1772455914755997000,4.569996826171875,0.0880558845937252,-1.464448429069668,-0.3748126425301656
1772455914766015700,4.580015625,0.07634791114330292,-1.6277815268352627,-0.39573739366978405
1772455914776033800,4.59003369140625,0.022258593559265134,-1.7063944603011012,-0.32849092674031855
1772455914786051800,4.6000517578125,-0.10927519823312759,-1.6700174711488187,-0.1976113976055756
1772455914796070000,4.61006982421875,-0.3027215485811233,-1.5651760175794363,-0.04458641642984003
1772455914806088400,4.62008837890625,-0.42436873713135714,-1.4440842709548771,0.1517783055828884
1772455914816106200,4.630106201171875,-0.41560383139550683,-1.3041158282943068,0.3796145994517952
1772455914826124500,4.64012451171875,-0.2692436418712139,-1.1944246696714311,0.5463696710227057
1772455914836143600,4.6501435546875,-0.1001683471918106,-1.1192524512439965,0.6492846500415355
1772455914846161400,4.660161376953125,-0.016171382600069045,-1.0429594851583242,0.6582412058919668
1772455914856179500,4.670179443359375,0.07368716750144957,-0.9557213466882705,0.5505463721854612
1772455914866197200,4.680197265625,0.17753157285749913,-0.8087950477138162,0.34906573193110524
1772455914876215600,4.690215576171875,0.2725233941942453,-0.6185875331565738,0.1811911548109725
1772455914886233300,4.7002333984375,0.3908797245055437,-0.4952480076052248,0.06202361771464347
1772455914896251400,4.71025146484375,0.46432957611978054,-0.4082383441288024,0.07330547470748425
1772455914906270500,4.7202705078125,0.3542886542111635,-0.34516258701272307,0.172994915808551
1772455914916288300,4.730288330078125,0.10841478201150893,-0.18488646566495298,0.24657931705527006
1772455914926306600,4.740306640625,-0.2747287952840328,0.03594860767237842,0.25624529981669036
1772455914936324400,4.750324462890625,-0.7896773825287818,0.22196831515096127,0.2519331722386181
1772455914946342400,4.76034228515625,-1.1655313873380422,0.45797626157030463,0.29200653169080615
1772455914956360400,4.7703603515625,-1.4186884022831916,0.6636898266866803,0.3957152914358303
1772455914966378500,4.78037841796875,-1.5689531980305909,0.6742173581808805,0.3722833067156374
1772455914976397600,4.7903974609375,-1.5519734216570853,0.5565832046642899,0.17564020615294576
1772455914986415400,4.800415283203125,-1.4670856457054615,0.42637525464817877,-0.004752089897915721
1772455914996433400,4.810433349609375,-1.3285346686273813,0.32846155451536174,-0.05114076997675001
1772455915006451500,4.820451416015625,-1.1747218250095843,0.32297837386392053,-0.059708143846504386
1772455915016469500,4.830469482421875,-1.0808382571756838,0.38422720781378444,-0.042544608403928576
1772455915026487300,4.8404873046875,-1.063454576176405,0.4048507475171238,-0.11127813555337487
1772455915036505300,4.85050537109375,-0.9919821621149778,0.43697059068158267,-0.24071477240342645
1772455915046524400,4.8605244140625,-0.763594846767187,0.4625649045348167,-0.2712640052502975
1772455915056542500,4.87054248046875,-0.518458641192317,0.5525750650014728,-0.11048596226237714
1772455915066560500,4.880560546875,-0.35260172403752804,0.7392674841098487,0.06318937355838716
1772455915076578300,4.890578369140625,-0.41415187902152534,0.9128399440780282,0.08321523962952196
1772455915086596600,4.9005966796875,-0.5288777438759803,1.0908769091743975,0.025621347990632055
1772455915096614400,4.910614501953125,-0.5582458771795034,1.2444789595857262,0.04566274042446166
1772455915106632400,4.920632568359375,-0.5569850634634494,1.3310486972749231,0.18362780737336723
1772455915116650200,4.930650146484375,-0.5351379733145236,1.3628415735073387,0.2917099233644083
1772455915126669300,4.94066943359375,-0.4859527943849563,1.3534469915658234,0.34907523041181265
1772455915136687600,4.9506875,-0.367206587973237,1.3194491526350378,0.3398852676643058
1772455915146705400,4.960705322265625,-0.2885357868403196,1.1635350258890538,0.29739907491672785
1772455915156723500,4.970723388671875,-0.30327041463553905,0.9926101578202098,0.24041352443452924
1772455915166741200,4.9807412109375,-0.3828460556536913,0.7315118284817784,0.13452519216071815
1772455915176759600,4.990759521484375,-0.488154103821516,0.42465128039978445,-0.026045491686835884
1772455915186777300,5.00077734375,-0.5612397982984781,0.2505143184166401,-0.18519951366949824
1772455915196796400,5.01079638671875,-0.5140419937938452,0.13755297901667654,-0.3382895594380796
1772455915206814500,5.020814453125,-0.3356149334013462,0.02721884631514549,-0.41942886957637965
1772455915216832500,5.03083251953125,-0.11690730054676532,-0.10498334625810384,-0.43768816436640917
1772455915226850600,5.0408505859375,0.17268354830443858,-0.2175999638736248,-0.3916213366530835
1772455915236868400,5.050868408203125,0.419268199121952,-0.2417067425828427,-0.2525444177384488
1772455915246886400,5.060886474609375,0.6079401746749877,-0.20551650817431508,-0.15555979688297955
1772455915256904400,5.070904541015625,0.7251853288739919,-0.14601247206516563,-0.11620859595919027
1772455915266923500,5.080923583984375,0.7265507720082998,-0.0814176886882633,-0.09824554416937753
1772455915276941600,5.090941650390625,0.7000812827557324,0.0042230245225131505,-0.06413902069972828
1772455915286959400,5.10095947265625,0.6781225489258765,0.07354249833375215,-0.025160050621815023
1772455915296977400,5.110977294921875,0.6761281602382659,0.12330043564997613,-0.06280260273050517
1772455915306995500,5.120995361328125,0.6220791746646166,0.07146094281934201,-0.25739297201447187
1772455915317013500,5.131013427734375,0.71907181442976,-0.03789382345601916,-0.4386688459668308
1772455915327031300,5.14103125,0.8627584008306264,-0.20548494399227202,-0.5212312111781909
1772455915337050400,5.15105029296875,1.012355088058114,-0.39433614856973287,-0.5435815016089007
1772455915347068700,5.161068603515625,1.154198092418909,-0.5593500390291214,-0.5225098528118803
1772455915357086500,5.17108642578125,1.3347855457156896,-0.7040336005780845,-0.3885285948021337
1772455915367104500,5.1811044921875,1.5383879638969897,-0.8063984349008649,-0.2400254566987045
1772455915377122300,5.191122314453125,1.6901321845471857,-0.8825460742317139,-0.09388963224850594
1772455915387140600,5.201140625,1.8561679654002188,-0.8777440807774662,0.05027940390706062
1772455915397158400,5.211158447265625,1.892210754162073,-0.8514871382970363,0.21835337605681268
1772455915407176400,5.221176513671875,1.7771452820897102,-0.8532298903111368,0.37476971670389175
1772455915417195300,5.2311953125,1.5637258187711238,-0.8583998402949422,0.49613260842002926
1772455915427213300,5.24121337890625,1.3247189097315073,-0.9023236646302044,0.5528010192444548
1772455915437231600,5.251231689453125,1.0228145227521657,-0.9984349184509366,0.4823482670869678
1772455915447249400,5.26124951171875,0.7338882752895355,-1.116615161542967,0.306067571073398
1772455915457267500,5.271267333984375,0.4750537992298603,-1.1828448526453226,0.1691016712296754
1772455915467285500,5.281285400390625,0.26491408823430534,-1.202677534231916,0.056224685644917186
1772455915477303600,5.291303466796875,0.1154611933916807,-1.1478528881106524,-0.015621548431273549
1772455915487322400,5.301322265625,0.0509293922483921,-1.07391240343526,-0.061064727820921684
1772455915497340400,5.31134033203125,0.037246903854608535,-1.0495908859968184,-0.08109844840494915
1772455915507358200,5.321358154296875,-0.021218729117512703,-1.0479484525520353,-0.13841836367435753
1772455915517376500,5.33137646484375,-0.22003391302227973,-1.0228848845746368,-0.2830255355188623
1772455915527394600,5.34139453125,-0.43872693282961844,-0.935122356904298,-0.4181935556277632
1772455915537412400,5.351412353515625,-0.7038041026711463,-0.7690752509396522,-0.47496849556658416
1772455915547430400,5.361430419921875,-0.9917968686759472,-0.5874957909308374,-0.4187194791980087
1772455915557449200,5.37144921875,-1.307729196485877,-0.4030813997570425,-0.3656041942778975
1772455915567467500,5.381467529296875,-1.586525095078349,-0.2000179838232696,-0.40870939570665354
1772455915577485300,5.3914853515625,-1.7166788306891918,-0.04892294779680669,-0.4497799129700288
1772455915587503400,5.40150341796875,-1.7458809597760439,0.04945033267177641,-0.5024581947123632
1772455915597521700,5.411521728515625,-1.8085890526235102,0.007384849554300308,-0.5305705923337489
1772455915607539500,5.42153955078125,-1.8286656259685754,-0.10504574396982788,-0.5300836490670219
1772455915617557500,5.4315576171875,-1.801653700402379,-0.23312413461133835,-0.5401341011013835
1772455915627575300,5.4415751953125,-1.684296318000555,-0.3322919995237142,-0.5673510842530056
1772455915637594400,5.451594482421875,-1.4868892473280428,-0.39424160215407605,-0.6750903416231274
1772455915647612400,5.4616123046875,-1.3256775256305933,-0.3582412642944604,-0.7392999981399625
1772455915657630500,5.47163037109375,-1.1381208178430795,-0.18869447964578867,-0.6966505045894533
1772455915667648300,5.481648193359375,-0.951576501968503,0.04950783501267433,-0.4541684667851776
1772455915677666300,5.491666259765625,-0.8864759610265492,0.24101788353584705,-0.1497515215961728
1772455915687684600,5.5016845703125,-0.8989531652837991,0.42344387737140055,0.08716757571818307
1772455915697702400,5.511702392578125,-0.9484510634243488,0.5568647250194102,0.18539377586627379
1772455915707721500,5.521721435546875,-0.9624036009311675,0.6409059671442955,0.20027484466116874
1772455915717739300,5.5317392578125,-0.9239473212867975,0.6259140766523779,0.20330144420703872
1772455915727757600,5.541757568359375,-0.7102852813839912,0.6010345600049942,0.16944138804543762
1772455915737775400,5.551775390625,-0.3716588912069797,0.5307558127075434,0.15792546656839548
1772455915747793400,5.56179345703125,-0.1532850203514099,0.4420747088875621,0.23558151943450792
1772455915757811500,5.5718115234375,-0.18554186083376406,0.48132272343151267,0.16387189908372238
1772455915767829500,5.58182958984375,-0.21123627406060694,0.7353247378334402,-0.09884531842712313
1772455915777848600,5.5918486328125,-0.026598668590188026,0.8872292636118829,-0.3267768893640488
1772455915787866400,5.601866455078125,0.30357904219329357,0.9305576062720269,-0.4279484953142702
1772455915797883400,5.61188330078125,0.7847393416047096,0.9953633289858699,-0.45787163215205073
1772455915807901200,5.621901123046875,1.2039549337565898,1.1811795497816056,-0.3576458556845784
1772455915817919200,5.631919189453125,1.4033470407664774,1.4297794128790497,-0.19023076756866647
1772455915827937000,5.64193701171875,1.3526561334490774,1.7028794379174708,-0.00032119477838277817
1772455915837955300,5.651955322265625,1.2371622068315744,1.957896109254658,0.1818668255828321
1772455915847974400,5.661974365234375,1.1666232742279767,2.1529706453263757,0.29416970107406376
1772455915857992200,5.6719921875,1.1730576911896466,2.2768074528753757,0.3362044237270951
1772455915868010200,5.68201025390625,1.240109366199374,2.3128394279822704,0.4020004361199215
1772455915878028000,5.692028076171875,1.4014040900051592,2.3316294686481354,0.4480226940391585
1772455915888046300,5.70204638671875,1.5024632485568523,2.2321122788414356,0.5560998050615191
1772455915898064100,5.712064208984375,1.463904677581787,2.05878984811157,0.7022071888685226
1772455915908082200,5.722082275390625,1.2832885827124119,1.9189803954049944,0.8007282803099602
1772455915918101200,5.732101318359375,0.9244885885566473,1.7023372938647865,0.6568119768064469
1772455915928119300,5.742119384765625,0.45456922960579393,1.5000295916691422,0.3091164372500032
1772455915938137300,5.752137451171875,0.032839024284482,1.3176923720955849,-0.026510113523900508
1772455915948155100,5.762155029296875,-0.24498598344922065,1.0630036906037479,-0.29444168641585855
1772455915958173200,5.772173095703125,-0.28850363813638685,0.7799057839684188,-0.41567835793644187
1772455915968191200,5.782191162109375,-0.11881342642903327,0.518579929484427,-0.3712051195574924
1772455915978209300,5.792209228515625,0.20433891576230526,0.34768677172809836,-0.2039945775703527
1772455915988227000,5.80222705078125,0.5083201090157031,0.20113047510981558,0.002715195509139448
1772455915998246100,5.81224609375,0.7443120541483164,0.02500306996181607,0.14744721757601945
1772455916008264200,5.82226416015625,0.8755570921272039,-0.23629370455816387,0.3553647590100765
1772455916018282200,5.8322822265625,0.900680427467823,-0.4954265059772879,0.5946093127304688
1772455916028300300,5.84230029296875,0.8626432500183582,-0.7332206051610409,0.7687204461526125
1772455916038318000,5.852318115234375,0.7699941924154758,-0.9045336688298732,0.8810244176223874
1772455916048336400,5.86233642578125,0.6760521723926067,-0.9918184229206293,0.986878628430888
1772455916058354200,5.872354248046875,0.6019073242515325,-1.0698368245594203,1.0191741204231977
1772455916068373200,5.882373291015625,0.5584054516553878,-1.1095006533626466,1.0245067136228083
1772455916078391300,5.892391357421875,0.5493576373249293,-1.126743391521275,0.9615195115730166
1772455916088409000,5.9024091796875,0.5219008906006812,-1.1097651495177299,0.8517597446933388
1772455916098427400,5.912427490234375,0.45513972297012806,-1.0974735309604555,0.7016529159866273
1772455916108445200,5.922445068359375,0.4072188648879528,-1.0628878091391176,0.5699830767244101
1772455916118463200,5.932463134765625,0.3454915997713804,-1.0241478171825409,0.41125093341562896
1772455916128481000,5.94248095703125,0.37142332888543605,-0.9516492749437689,0.24451157087050376
1772455916138499300,5.952499267578125,0.5132867915123701,-0.8525103438649326,0.12688933612057007
1772455916148518400,5.962518310546875,0.6609153935372829,-0.773796872634068,0.15525818358790128
1772455916158536200,5.9725361328125,0.7433107681512833,-0.699576840364933,0.29509255154002456
1772455916168554200,5.98255419921875,0.7697732431411742,-0.6295324863452464,0.4371147483926266
1772455916178572300,5.992572265625,0.6443184790015221,-0.6515017415691167,0.4971675774909556
1772455916188590300,6.00259033203125,0.43301440040171146,-0.6807509977333247,0.47571569720469414
1772455916198608100,6.012608154296875,0.2407090367823839,-0.7142803423695265,0.37783462069984525
1772455916208626200,6.022626220703125,0.17328735941648482,-0.8158902666717768,0.2730277087208815
1772455916218645200,6.032645263671875,0.10001695602238178,-0.9590491028714925,0.13278122543706558
1772455916228663300,6.042663330078125,0.035409167033433914,-1.0819822395790368,-0.06463451259909198
1772455916238681300,6.052681396484375,0.07414952431619166,-1.1726493295844644,-0.12464426974067463
1772455916248699100,6.06269921875,0.20194179149270056,-1.2092595429707318,-0.09263611592291854
1772455916258717200,6.07271728515625,0.30908991456925866,-1.233093057696521,0.04264397255859803
1772455916268735200,6.0827353515625,0.36128713479638097,-1.2186358586031942,0.15566172288749366
1772455916278753300,6.092753173828125,0.3134253134250641,-1.1633359231203795,0.2595635575192049
1772455916288772000,6.102772216796875,0.14741875866651535,-1.1264072914347052,0.4386069962443784
1772455916298790100,6.1127900390625,-0.1611105994105339,-1.1028932909868656,0.606328720890358
1772455916308808400,6.122808349609375,-0.5565940183192492,-1.0452657162740826,0.6739112879063933
1772455916318826200,6.132826171875,-0.8631547066718339,-0.9537875290814787,0.6218667009577155
1772455916328844300,6.14284423828125,-1.0101087704360485,-0.8726593248590826,0.41893933249376714
1772455916338862000,6.152862060546875,-0.9938701678186654,-0.9111617086675018,0.16120766657683996
1772455916348880400,6.16288037109375,-0.9485697213679551,-1.0564503234375267,-0.08788524073455482
1772455916358898200,6.172898193359375,-1.0173451514303684,-1.2276098039798438,-0.1675854214478284
1772455916368917200,6.182917236328125,-1.1886883910417556,-1.291863226573169,-0.09896856121430173
1772455916378935300,6.192935302734375,-1.3386761234134434,-1.2031662675969301,0.032216965129692104
1772455916388953000,6.202953125,-1.4233394429594277,-1.0403739256445317,0.18846978577813134
1772455916398971400,6.212971435546875,-1.4865601615041493,-0.8143264514211564,0.29180801344402135
1772455916408989200,6.2229892578125,-1.5354244379162787,-0.5040457196321338,0.3248772297551855
1772455916419007200,6.23300732421875,-1.5978759256541728,-0.13661460218802093,0.31563129903674125
1772455916429025300,6.243025390625,-1.5866262173652648,0.2686914148159325,0.22685751196462658
1772455916439044400,6.25304443359375,-1.5511562600553035,0.6870856806475669,0.0448852897785604
1772455916449062100,6.263062255859375,-1.4679659356713295,0.9678239454794675,-0.1673009236843325
1772455916459080200,6.273080078125,-1.3069874382078648,1.1446561378959565,-0.32784166905134915
1772455916469098200,6.28309814453125,-1.1643202579826115,1.3319599669009445,-0.2878274193752557
1772455916479116300,6.2931162109375,-1.0935492701888083,1.5283639980107544,-0.11713111763158812
1772455916489134300,6.30313427734375,-1.1117588806182146,1.8425421756297349,-0.021711732232267966
1772455916499152100,6.313152099609375,-1.1154209102571009,2.197230642813444,0.008002401497331448
1772455916509171200,6.323171142578125,-0.949316155821085,2.593098677125573,0.04634253024901263
1772455916519189000,6.33318896484375,-0.6644897448927164,2.8182451108559965,0.15797157073244453
1772455916529207300,6.343207275390625,-0.38322482583820816,2.833874349403381,0.27535076310727746
1772455916539225300,6.353225341796875,-0.22408406519591806,2.7286557330846786,0.31755050359629095
1772455916549243100,6.3632431640625,-0.21816753462851046,2.522655606111884,0.3501492528514936
1772455916559261400,6.373261474609375,-0.4533329658091068,2.219061074088514,0.5059707694105804
1772455916569279200,6.383279296875,-0.788460992476344,1.8528180704504251,0.6051327525714412
1772455916579298300,6.39329833984375,-1.0040677367061377,1.3928417211040853,0.4284006229959428
1772455916589316000,6.403316162109375,-1.087085627132654,0.8773476288057863,0.018806407278776166
1772455916599334100,6.413334228515625,-0.9629916299521922,0.39972383295744657,-0.4246349503194913
1772455916609352200,6.423352294921875,-0.6224421627581119,0.010125672695040703,-0.7714812161028385
1772455916619370200,6.433370361328125,-0.23266952271163463,-0.2609304254256189,-0.9874654153428971
1772455916629388300,6.44338818359375,0.10138590628802775,-0.410598716584593,-1.0719817276336252
1772455916639406000,6.453406005859375,0.22735388064682482,-0.48518458649143575,-1.043629712570086
1772455916649424400,6.46342431640625,0.16611761391758917,-0.5480971158698201,-1.0041191015671938
1772455916659443200,6.473443115234375,0.052930795198678965,-0.5101935016721487,-0.9601953502971678
1772455916669461200,6.483461181640625,-0.041621465677022934,-0.38150384726449843,-0.8874721324570477
1772455916679479000,6.49347900390625,-0.06301672040522098,-0.25404768017455936,-0.8259763380087911
1772455916689497300,6.503497314453125,-0.023363924452662468,-0.09085515992343425,-0.6753729579567909
1772455916699515100,6.51351513671875,0.07993512198030948,0.10395824099406599,-0.5164383143458515
1772455916709533200,6.523533203125,0.2947539307028055,0.24336495811864733,-0.3885317000746727
1772455916719551200,6.53355126953125,0.4786375029355287,0.34776670509651303,-0.28247128090327606
1772455916729570000,6.543570068359375,0.7082049679785967,0.3896646496273577,-0.21339575364943592
1772455916739588400,6.55358837890625,0.9524702359378338,0.4073812158428132,-0.2367248442507349
1772455916749606100,6.563606201171875,1.1570505592405795,0.40097134880051016,-0.25844776003072034
1772455916759624200,6.573624267578125,1.3029273491621016,0.37156127605140205,-0.18295317778112366
1772455916769642200,6.583642333984375,1.3263777828544379,0.34144276277199387,-0.10606810928750783
1772455916779660300,6.593660400390625,1.2961428035885094,0.2854262765176594,-0.10540411068713292
1772455916789678300,6.60367822265625,1.212166297262907,0.23877529224082827,-0.14143369290754199
1772455916799698000,6.613697998046875,1.1042518659889697,0.190227826692909,-0.15451045222682877
1772455916809716000,6.623716064453125,0.9927823725819587,0.15048194562941788,-0.17628566444963215
1772455916819733800,6.633733642578125,0.966339771336317,0.10448226486817001,-0.19727774520441888
1772455916829752000,6.643751953125,1.0628051723569631,0.060319005753844974,-0.19663581230537966
1772455916839769900,6.653769775390625,1.2231260826945305,-0.012253478503972291,-0.2036531437215395
1772455916849788000,6.663787841796875,1.390807877188921,-0.05405760727152228,-0.20465369906621053
1772455916859805700,6.6738056640625,1.5384768112242222,-0.11300707823783158,-0.20897764494623988
1772455916869824000,6.683823974609375,1.668559235164523,-0.16992781985551117,-0.23050048984317106
1772455916879843000,6.693843017578125,1.847805210724473,-0.2375212005265057,-0.21296476008733733
1772455916889860900,6.70386083984375,2.028718242713809,-0.29059841845855117,-0.11846740773664786
1772455916899879000,6.71387890625,2.1441654075801373,-0.32486981363371015,0.03736862140498124
1772455916909897000,6.72389697265625,2.1182763485640286,-0.3519150569476187,0.20440717695923522
1772455916919915000,6.7339150390625,1.973974845135212,-0.3701885263934731,0.29755601904410867
1772455916929932800,6.743932861328125,1.7986480888456104,-0.4391887051224708,0.3668643869394436
1772455916939950800,6.753950927734375,1.6921622290700673,-0.5035118319511414,0.4197709610123187
1772455916949970000,6.763969970703125,1.6469044527173042,-0.6055531334079801,0.40408948082104323
1772455916959988000,6.773988037109375,1.5678361766993998,-0.7389421976782381,0.287744362467993
1772455916970006000,6.784006103515625,1.4573878430336713,-0.830500099043548,0.10513946840157731
1772455916980023800,6.79402392578125,1.3464473419368266,-0.923549992532283,-0.059222378756711255
1772455916990041900,6.804041748046875,1.15087683904171,-0.9718244863577187,-0.14888211835050022
1772455917000060000,6.814059814453125,0.8858066834628582,-0.9655638185277581,-0.17867993917502462
1772455917010078000,6.824077880859375,0.4342793057709932,-0.9797764682754874,-0.10272506420360877
1772455917020095700,6.834095703125,-0.21307108827233312,-0.9612101533628999,-0.0029917474281974136
1772455917030114800,6.84411474609375,-0.983773721218109,-0.8272517647720873,-0.015440912901051342
1772455917040133000,6.854133056640625,-1.726001370307803,-0.6756023827984928,0.053456353442743416
1772455917050151000,6.86415087890625,-2.3314164104193447,-0.5310737926155329,0.1036045687181875
1772455917060169000,6.8741689453125,-2.6669968570291993,-0.3807455762431025,0.10139293881701304
1772455917070186800,6.884186767578125,-2.7707378020107742,-0.35100758671388027,0.03029374198215082
1772455917080205000,6.894205078125,-2.727491365480423,-0.5992839900106192,-0.09777951582651585
1772455917090222800,6.904222900390625,-2.544883804532885,-0.9602598669007419,-0.29625432532839474
1772455917100242000,6.914241943359375,-2.3275936372607946,-1.2404529189400375,-0.5081571370063349
1772455917110260000,6.924260009765625,-2.1124188547074794,-1.398890645879507,-0.8867156150013208
1772455917120277800,6.93427783203125,-1.8572054917544125,-1.3396595814928411,-1.2157469322286545
1772455917130296000,6.944296142578125,-1.5236211873978376,-1.151955720319599,-1.366231800467521
1772455917140313900,6.95431396484375,-1.1858797633618117,-0.820612765149027,-1.3096670326806603
1772455917150332000,6.964331787109375,-0.8874602958887815,-0.376911258777231,-1.1430241527799516
1772455917160350000,6.974349853515625,-0.7379781749516725,0.04334025229364633,-0.8457261636175215
1772455917170368000,6.984367919921875,-0.6686562169224023,0.41368265407457944,-0.6056816186258569
1772455917180387000,6.994386962890625,-0.5968301671177149,0.756906016653031,-0.44856315759140997
1772455917190404900,7.00440478515625,-0.5540846658468246,0.9499481701143085,-0.25279915968449784
1772455917200423000,7.0144228515625,-0.5018219791680574,1.0108392766676844,-0.13884466279502958
1772455917210441000,7.02444091796875,-0.5137415495425462,0.9367128409661352,-0.2076712202564813
1772455917220459000,7.034458984375,-0.4307189829409122,0.8586303611151873,-0.3498389813259244
1772455917230476800,7.044476806640625,-0.1719593256831169,0.8526867964103817,-0.43800292940400537
1772455917240494800,7.054494873046875,0.2522130120933056,0.8860244178667664,-0.33977446423359214
1772455917250514000,7.064513916015625,0.712156335952878,0.9466567273534834,-0.16713901112088933
1772455917260532000,7.074531982421875,1.215226853877306,0.9903161285988986,0.0003126963780960068
1772455917270550000,7.084550048828125,1.617614645346999,1.004047716831416,0.10435261060651391
1772455917280567800,7.09456787109375,1.810970979323983,1.0551055577650665,0.15145005087605676
1772455917290586000,7.104586181640625,1.7692109819591044,1.1909503446243703,0.11086725319754331
1772455917300604000,7.11460400390625,1.4575871649980545,1.3112034484677015,0.07604224729419219
1772455917310622000,7.1246220703125,0.9631833531320094,1.4716772112794219,0.00943012589564314
1772455917320641000,7.13464111328125,0.4867465751111507,1.6063737048864364,-0.02324754066453315
1772455917330658800,7.144658935546875,0.1182721591591835,1.7333628389865159,0.035211861212912476
1772455917340677000,7.154677001953125,-0.20174246952831745,1.8356139838017522,0.17360312910107895
1772455917350695000,7.16469482421875,-0.42659927266240116,1.9299743753671645,0.2867684483742341
1772455917360713000,7.174712890625,-0.5091191504389048,2.042400146585703,0.4062111491501331
1772455917370730800,7.184730712890625,-0.5185895740956068,2.050169319282472,0.5013358396189287
1772455917380749000,7.1947490234375,-0.520357168290019,2.0040899974137543,0.43100543519947676
1772455917390766800,7.204766845703125,-0.4550035293698311,1.9222091481931507,0.1996389031114988
1772455917400786000,7.214785888671875,-0.24212650236487387,1.7340202799819409,-0.08854558607311919
1772455917410804000,7.224803955078125,0.15456453876793383,1.470532132897526,-0.30370577384550124
1772455917420822000,7.234822021484375,0.6341887146532535,1.2215087106257676,-0.34488230876661835
1772455917430840000,7.244840087890625,1.1835989589482545,1.0033749321363865,-0.2765985529449768
1772455917440857900,7.25485791015625,1.6516706442058084,0.7748723198458551,-0.039378892648313193
1772455917450876000,7.2648759765625,1.9668699815660713,0.5246665559217334,0.23115446023987604
1772455917460894000,7.27489404296875,2.0467963357180357,0.25917291423380373,0.4457745863188058
1772455917470913000,7.2849130859375,1.8137299226433037,0.005967237841337919,0.4597902887223288
1772455917480931000,7.29493115234375,1.4374766893833875,-0.16735007832199333,0.3071473291341215
1772455917490948900,7.304948974609375,1.07429921079576,-0.29641718773990866,0.1327328836501576
1772455917500967000,7.314966796875,0.8665297360628843,-0.4552043126389384,0.05971976121906191
1772455917510985000,7.32498486328125,0.7111579725652932,-0.6054753919966519,0.03313473071187036
1772455917521003000,7.3350029296875,0.5804822589069605,-0.7147083585232495,0.04040432213933672
1772455917531020800,7.345020751953125,0.4478478123962879,-0.7169866787187754,0.11690502639128826
1772455917541039000,7.3550390625,0.27918811278045175,-0.6751043701484799,0.21496103020478038
1772455917551058000,7.365057861328125,0.06237491537034511,-0.6663672292023897,0.32176121662650253
1772455917561076000,7.375075927734375,-0.20078443815112113,-0.6351105056732893,0.4220163653189316
1772455917571094000,7.385093994140625,-0.4749345567643642,-0.5857889870129526,0.5430934988962486
1772455917581111800,7.39511181640625,-0.7283721422165632,-0.5816330363772809,0.629347631297633
1772455917591130000,7.405130126953125,-0.9316717780590057,-0.5936896771349013,0.653837052648887
1772455917601148000,7.41514794921875,-1.0376695620566605,-0.6505836768761277,0.6118521970195695
1772455917611166000,7.425166015625,-1.0209627574056386,-0.7241010407686234,0.5275870464783161
1772455917621184800,7.435184814453125,-0.9406786758571862,-0.8291204812534153,0.4995137752909213
1772455917631202800,7.445202880859375,-0.7664829694241285,-0.9676019002266227,0.4724872366774827
1772455917641221000,7.45522119140625,-0.5890057571023702,-0.9952532927401363,0.3517468973064795
1772455917651239000,7.465239013671875,-0.37312136497497556,-0.9675272275552153,0.3144926503956318
1772455917661257000,7.475257080078125,-0.16492402021884917,-0.9665380703873931,0.36520105683710424
1772455917671275000,7.48527490234375,-0.041105917370319364,-0.9358489176131785,0.3698050800338387
1772455917681293000,7.49529296875,0.06879939545989036,-0.90207538895756,0.33519144729226824
1772455917691311900,7.505311767578125,0.12227905671298503,-0.8728362888611852,0.3149263656377792
1772455917701330000,7.515329833984375,0.07239946577847003,-0.8459178867973387,0.3013315737937577
1772455917711347700,7.52534765625,0.04473287569582462,-0.7573907314300536,0.34810784668438133
1772455917721366000,7.535365966796875,-0.007649053448438644,-0.6828437322288751,0.3987881595425308
1772455917731384000,7.545384033203125,-0.07044891623258591,-0.5839272847943008,0.4664796668257564
1772455917741401900,7.55540185546875,-0.10542904419898987,-0.5105611659407615,0.4923097256636247
1772455917751420000,7.565419921875,-0.024853286227583885,-0.45333281967863437,0.5301016231151298
1772455917761438000,7.57543798828125,0.15731296069324016,-0.39049700879827137,0.5598881644938141
1772455917771457000,7.58545703125,0.37456864117383953,-0.35912484219595786,0.43876960292756556
1772455917781474800,7.595474853515625,0.6006757366299629,-0.3387815807387233,0.3344303267266601
1772455917791492900,7.605492919921875,0.7666618331223726,-0.29096301398724317,0.12115381554272026
1772455917801511000,7.615510986328125,0.900161956551671,-0.22387261440232395,-0.1472024490347132
1772455917811529000,7.625529052734375,1.093477373996377,-0.2049928496263921,-0.2331400628328323
1772455917821546800,7.635546630859375,1.0730249530762432,-0.29213088872283693,-0.08370992781128733
1772455917831564800,7.645564697265625,0.6494570109337567,-0.35805136774554847,0.2192641707587987
1772455917841583600,7.65558349609375,-0.1401274326145649,-0.2812712026648223,0.5166244480350985
1772455917851602000,7.665601806640625,-1.0715174711227415,-0.05071706467196345,0.7170224076192826
1772455917861619700,7.67561962890625,-1.9247335521042346,0.19947700881436467,0.9757501353688538
1772455917871637800,7.6856376953125,-2.642476748278737,0.4272624127462506,1.2561230740197002
1772455917881655800,7.69565576171875,-3.281612856206298,0.6490697651818395,1.1215534216627479
1772455917891673900,7.705673828125,-3.706945469933748,0.8014543295621871,0.657599766183272
1772455917901692000,7.71569189453125,-3.627656829163432,0.7470926247775554,0.14867369063105434
1772455917911709700,7.725709716796875,-3.0749533885419367,0.6263058524489402,-0.13516367272734642
1772455917921728800,7.735728759765625,-2.3349118513196707,0.47812794597819447,-0.1696796903133392
1772455917931746800,7.745746826171875,-1.6097452271461485,0.41547786692827937,-0.1453103151451796
1772455917941764900,7.755764892578125,-1.0471996069461107,0.539589107504487,-0.16476703955885022
1772455917951782700,7.76578271484375,-0.6522416732162237,0.7967721630953252,-0.2114560542911291
1772455917961800700,7.77580078125,-0.34692660101056094,1.1597045808807014,-0.3301009922854602
1772455917971819000,7.785819091796875,-0.06736322517693043,1.5003399727925657,-0.5430339872613549
1772455917981836800,7.7958369140625,0.23217151006162165,1.7204777845807373,-0.7159018060915172
1772455917991855900,7.80585595703125,0.5716472105443478,1.8928714100278914,-0.8371851297654211
1772455918001873700,7.815873779296875,0.9567769932210445,1.9567564377002418,-0.8680166136197746
1772455918011892000,7.82589208984375,1.317979372343421,1.8782554401762783,-0.730741940087825
1772455918021909800,7.83590966796875,1.5453443589061497,1.668283340832591,-0.5688470949644222
1772455918031927800,7.845927734375,1.5608166533261536,1.3260466512039304,-0.39376192887835204
1772455918041945600,7.855945556640625,1.4136480700284242,0.8359289922244846,-0.2018401942817494
1772455918051964000,7.8659638671875,1.1454472152084112,0.34573008470237254,-0.0590495246741455
1772455918061982000,7.87598193359375,0.6989204222828149,-0.04427475666478276,0.12057550419811158
1772455918072000800,7.886000732421875,-0.11180676253736019,-0.34720483343005176,0.22360780771998687
1772455918082018800,7.896018798828125,-1.1293103193998335,-0.32696196360737084,0.15166724642384796
1772455918092036600,7.90603662109375,-2.0060241803467274,-0.14096592926532028,-0.030113983234763143
1772455918102055000,7.916054931640625,-2.499194066503644,0.05289309353679418,-0.13353431795984505
1772455918112072700,7.92607275390625,-2.643386848860979,0.21161168324425816,-0.23029468333907424
1772455918122090800,7.9360908203125,-2.5330706171423194,0.283822202321887,-0.47221357083525506
1772455918132108800,7.94610888671875,-2.107759046202898,0.27852526495754715,-0.7657469102345407
1772455918142127900,7.9561279296875,-1.497403627079725,0.24379735818654297,-0.9611902065534144
1772455918152146000,7.96614599609375,-0.7638847696244716,0.16711641569659114,-1.0104868099682032
1772455918162163700,7.976163818359375,0.024428338813781737,0.0773942053258419,-0.8903245992787182
1772455918172181800,7.986181640625,0.7718126400142907,0.17609978648871183,-0.6810096486695111
1772455918182199800,7.99619970703125,1.4901947186142206,0.31463103595301506,-0.47811983573697503
1772455918192217900,8.0062177734375,2.1500655715346335,0.4192139847166836,-0.2681312967151403
1772455918202235600,8.016235595703124,2.601996269330382,0.4679457207903266,-0.030873605963028964
1772455918212253700,8.026253662109376,2.7623843996852635,0.40211905753090976,0.20346461714580655
1772455918222272800,8.036272705078124,2.6861358572632072,0.3538574231870472,0.2939586521392688
1772455918232290800,8.046290771484376,2.479519644218683,0.2879958347447216,0.1922095568283461
1772455918242308900,8.056308837890626,2.2592203582584856,0.15079627227559686,0.012007303456868975
1772455918252326700,8.06632666015625,2.064503257322311,-0.021656828273832796,-0.12962496249638497
1772455918262345000,8.076344970703126,1.964942228373885,-0.17606471517533062,-0.24455804036073386
1772455918272362800,8.08636279296875,1.939897218966484,-0.3034247284144163,-0.3405046782042831
1772455918282380800,8.096380859375,1.9822037442982197,-0.4208214199133217,-0.320135259392485
1772455918292399900,8.10639990234375,1.9900410137951372,-0.5169210563614964,-0.22756387013569473
1772455918302417700,8.116417724609375,1.915911363223195,-0.5826157638043165,-0.171425291871652
1772455918312436000,8.12643603515625,1.7495979344725607,-0.6133769589014351,-0.19360486537795513
1772455918322453800,8.136453857421875,1.4889035097599028,-0.6881877236053348,-0.30385369441621
1772455918332471800,8.146471923828125,1.1664508402705192,-0.8186499406434595,-0.49897115631420164
1772455918342489600,8.156489501953125,0.8515589614242315,-0.9319353974312543,-0.7195078677594662
1772455918352508000,8.1665078125,0.6781558666735887,-0.9790044609896839,-0.9166649091936647
1772455918362525700,8.176525634765625,0.5823468837350606,-1.0505568084195256,-1.0465390972107649
1772455918372544800,8.186544677734375,0.5057780233174562,-1.0713044128939508,-1.0794631694301962
1772455918382562800,8.196562744140625,0.41190380783379077,-1.0538052888214589,-0.9642041475471108
1772455918392580900,8.206580810546875,0.39977439410090443,-1.0384864313974975,-0.7715140954591333
1772455918402599000,8.216598876953125,0.41376434100866316,-1.0064838579371571,-0.6066694971520453
1772455918412616700,8.22661669921875,0.37852000914812084,-0.9799480254501104,-0.45179428499974306
1772455918422634800,8.236634765625,0.28348434866964817,-0.9237390853635966,-0.32925394700206817
1772455918432652800,8.24665283203125,0.1013058267891407,-0.8749901058942079,-0.22873358976850286
1772455918442671900,8.256671875,-0.15120003077089786,-0.834235778440535,-0.1765353466280736
1772455918452690000,8.26668994140625,-0.36032968794107434,-0.7952966837152838,-0.14179540235940366
1772455918462707700,8.276707763671874,-0.5605728588223458,-0.7816757162503898,-0.03161390293631702
1772455918472725800,8.286725830078124,-0.7677993127197027,-0.7481563084863125,0.1147348792779725
1772455918482743800,8.296743896484376,-0.9260936856657266,-0.6495915970988572,0.18606646922975778
1772455918492761900,8.306761962890626,-1.0500883141249417,-0.5793368882641196,0.23812302061086518
1772455918502779600,8.316779541015626,-1.1065566358000039,-0.5385641483709216,0.30437985544847324
1772455918512798000,8.3267978515625,-1.0858370883762836,-0.6037374622881412,0.36819041137881575
1772455918522817000,8.336817138671876,-1.0827525663644075,-0.7039461414903402,0.49350437880828973
1772455918532834800,8.346834716796875,-1.0975362939983606,-0.7841727937631309,0.551205457148701
1772455918542852900,8.356852783203125,-1.2049100425243378,-0.7329781747072934,0.5298354464596137
1772455918552870700,8.36687060546875,-1.4171440954506396,-0.6522093783818185,0.3962137424772605
1772455918562889000,8.376888916015625,-1.7034154444903133,-0.5470591511242091,0.22828977325744926
1772455918572906800,8.38690673828125,-1.975154994830489,-0.3877884804919362,0.07840519073298201
1772455918582924800,8.3969248046875,-2.1411229711443185,-0.15566913900896906,-0.11436689534895121
1772455918592943900,8.40694384765625,-2.115362506943941,0.10016761653944849,-0.2940421657042578
1772455918602961700,8.416961669921875,-1.8637480452656745,0.33158144010156393,-0.4470687908478081
1772455918612980000,8.42697998046875,-1.4210294124513865,0.6147247202485799,-0.5194655532125383
1772455918622997800,8.436997802734375,-0.8120540495097637,0.8024722744330763,-0.4596089042734354
1772455918633015800,8.447015869140625,-0.2269464688897133,0.8780487628124654,-0.19853373661488294
1772455918643033900,8.457033935546875,0.23914777881503105,0.9305226080238819,0.08828552863113581
1772455918653052000,8.467052001953125,0.5235299531072378,0.9703639122858643,0.3198010224694386
1772455918663069700,8.477069580078124,0.5718249051988125,0.9838844881162047,0.4851831617193296
1772455918673088800,8.4870888671875,0.4241296676784754,1.0190814737036824,0.6281285378314554
1772455918683106800,8.49710693359375,0.179710085940361,0.9897864056363701,0.8174515977043658
1772455918693124900,8.507124755859374,-0.019292729490995406,0.9372646296299993,0.819638513289392
1772455918703143000,8.517142822265624,-0.11304361085593699,0.7978130504503845,0.6496583787247538
1772455918713160700,8.52716064453125,-0.03991173914968967,0.676433865186572,0.447461078101024
1772455918723178800,8.5371787109375,0.10452245074808597,0.6450996925070881,0.2315291935700923
1772455918733196800,8.54719677734375,0.21260522432625292,0.6401362248808146,0.0437531804760918
1772455918743215900,8.5572158203125,0.24261808527410028,0.7225260465368628,-0.12841778779686427
1772455918753234000,8.56723388671875,0.16942483876943587,0.8593997380524874,-0.20405050900867208
1772455918763251700,8.577251708984376,0.05048866274356842,1.0412954974688589,-0.20157167953867464
1772455918773270000,8.58727001953125,-0.07615034274458884,1.2849449716173111,-0.02698501015980728
1772455918783287800,8.597287841796875,-0.15196750801205633,1.5719051797039807,0.1998848406965844
1772455918793305900,8.607305908203125,-0.18997019867002962,1.8599270256727933,0.30142208335511383
1772455918803324000,8.617323974609375,-0.2307014375090599,1.9423371594645082,0.3600843348778784
1772455918813342000,8.627342041015625,-0.2245534362733364,1.8584077071510254,0.3365409256724641
1772455918823361000,8.637361083984375,-0.16683073062300682,1.6582834864743052,0.2878657055590302
1772455918833379000,8.647379150390625,0.019039631512761116,1.5417062946647404,0.27893081355113536
1772455918843396900,8.65739697265625,0.24218086290061472,1.4933568359069525,0.3841969222733751
1772455918853415000,8.667414794921875,0.45433308276236056,1.4843144284039735,0.5713230931565165
1772455918863433000,8.677432861328125,0.6688029319167137,1.4722173095054925,0.6433315868560224
1772455918873451000,8.687450927734375,0.869622441381216,1.385143567816913,0.6543067159872502
1772455918883468800,8.69746875,1.034749875217676,1.2774457019031047,0.6423351962298155
1772455918893487900,8.70748779296875,1.1818044767469167,1.1309119093775748,0.6401756070431321
1772455918903506000,8.717505859375,1.2254863820850848,0.9485552544511854,0.562678745060414
1772455918913524000,8.72752392578125,1.2115969729423521,0.7892877986893058,0.43961862097233534
1772455918923542000,8.7375419921875,1.0805383974462748,0.7040623152159154,0.3221935801617801
1772455918933559800,8.747559814453124,0.9188678260654211,0.6267759541787207,0.2300395943331532
1772455918943578000,8.757578125,0.7576718864589929,0.5071602714560925,0.11346472234483808
1772455918953596000,8.767595947265624,0.6252203952997922,0.4043741429813206,0.03359787982776761
1772455918963615000,8.777614990234374,0.5588929429113865,0.32301775602623817,-0.010587883379310369
1772455918973633000,8.787633056640624,0.5602034409880637,0.25440891470238564,-0.010022577646747232
1772455918983650800,8.79765087890625,0.6124328099191189,0.1352742934949696,0.04385176374604925
1772455918993669000,8.807669189453126,0.6284627382218837,-0.07700359857305884,0.043679585516918445
1772455919003687000,8.81768701171875,0.5751666168421506,-0.2927636336684227,-0.07378193311281502
1772455919013705000,8.827705078125,0.44021571008265015,-0.49893999399095773,-0.21869585108524187
1772455919023723000,8.837722900390625,0.22592940080165863,-0.6907568434409797,-0.3958714683782309
1772455919033741000,8.847740966796875,0.09739946700036525,-0.7613425377957522,-0.4838920989954844
1772455919043760000,8.857760009765625,0.010304536393284797,-0.7953565972089767,-0.5071638516526669
1772455919053778000,8.86777783203125,0.024307342782616613,-0.8292723108142613,-0.477440548235923
1772455919063796000,8.8777958984375,0.07976093445718288,-0.8809212495088576,-0.4086672005327418
1772455919073814000,8.88781396484375,0.12511807953119278,-0.8781183209173381,-0.28092706540226936
1772455919083832000,8.89783203125,0.13263912268579006,-0.8504542150527238,-0.12124891908080317
1772455919093849900,8.907849853515625,0.1132224745541811,-0.8118636415041983,-0.025091709509782956
1772455919103868000,8.917867919921875,0.023694179320335386,-0.793913558793813,0.0415542547928635
1772455919113886000,8.927885986328125,-0.08725625864863396,-0.8456034140206873,0.03987277711248025
1772455919123905000,8.937905029296875,-0.15148703101873398,-0.9600149522289633,-0.05167408226900734
1772455919133923000,8.947923095703125,-0.1834843437820673,-1.0657324579805134,-0.15795772487018256
1772455919143940900,8.95794091796875,-0.16165128215849398,-1.1135023632846772,-0.16821186451679096
1772455919153959000,8.967958984375,-0.0723573802024126,-1.1036080151274799,-0.09709934240947476
1772455919163977000,8.97797705078125,0.005769815573096275,-1.0814829848200083,0.05852842340948991
1772455919173995000,8.9879951171875,0.06664426325261592,-1.0034930055581033,0.24931268754191696
1772455919184012800,8.9980126953125,0.09542845918834209,-0.927378903170675,0.5091188581779599
1772455919194031900,9.008031982421874,0.03553367019593715,-0.8590165839537978,0.7571273312535136
1772455919204050200,9.01805029296875,-0.13034428974688053,-0.8178207963429391,0.8977208470098674
1772455919214068000,9.02806787109375,-0.31455987041294575,-0.8000821644261479,0.9448706476543098
1772455919224086000,9.0380859375,-0.46859892400205133,-0.841675280791521,0.9161679194569587
1772455919234103800,9.048103759765626,-0.569011601343751,-0.8672180105879902,0.8525613433998077
1772455919244122000,9.0581220703125,-0.5738286462366581,-0.880957051474601,0.7957648857489228
1772455919254140000,9.068139892578126,-0.4648217435508966,-0.8056472512073815,0.6650028089813887
1772455919264158000,9.078157958984375,-0.20687866337299346,-0.7192579846516252,0.6432059877149761
1772455919274177000,9.088177001953126,0.09723054017424583,-0.620089316021651,0.6377230262592435
1772455919284195000,9.098195068359376,0.2722159356802702,-0.566891978841275,0.6651539078898727
1772455919294213000,9.108213134765625,0.1865811407536268,-0.5160578636609018,0.7297198304984718
1772455919304231000,9.11823095703125,-0.07412438987493515,-0.45163726780712604,0.7921379274234175
1772455919314249000,9.1282490234375,-0.43172903676629065,-0.33277664123550055,0.8002174812436104
1772455919324267000,9.13826708984375,-0.8372983808815478,-0.19359277308136225,0.7805807606205344
1772455919334285000,9.14828515625,-1.257420566484332,-0.013144143733382223,0.6916511619322001
1772455919344304000,9.15830419921875,-1.6229600980281829,0.1842573739811778,0.46198867554944006
1772455919354322000,9.168322021484375,-1.8029302962094544,0.3451077150203287,0.18747615336459128
1772455919364340000,9.178340087890625,-1.7431114950627087,0.4559434405684471,0.014811455891095102
1772455919374358000,9.18835791015625,-1.4491303022980688,0.5398433745265007,-0.10933660956416279
1772455919384376000,9.1983759765625,-1.051387706285715,0.621272534456849,-0.1632738235927187
1772455919394393900,9.208393798828125,-0.6940893488645553,0.7637780943796039,-0.14806226246813312
1772455919404412000,9.218411865234375,-0.41924481824636456,0.9388796636112033,-0.11720283116092904
1772455919414430000,9.228429931640624,-0.20123627357184887,1.0818065176859497,0.09142484957017004
1772455919424449000,9.238448974609375,-0.16789163785278796,1.2113374452233314,0.3489507637819275
1772455919434467000,9.248467041015624,-0.24799159500598905,1.388788792451471,0.4668340332213789
1772455919444484900,9.25848486328125,-0.3696475513845682,1.542158130085468,0.5557906660471111
1772455919454503200,9.268503173828124,-0.48492111324965953,1.67885061981529,0.5598017648519947
1772455919464521000,9.27852099609375,-0.6412023928076028,1.7830073059909044,0.24914609880335628
1772455919474539000,9.2885390625,-0.7442272984743118,1.8199793384268879,-0.2055443094966933
1772455919484556800,9.298556884765626,-0.6906698958098888,1.7248296961799263,-0.6044382309686392
1772455919494575900,9.308575927734376,-0.4245645519644022,1.5245140445843337,-0.8378547726552933
1772455919504594200,9.31859423828125,-0.019154782325029374,1.2936065631091593,-0.9023672845762223
1772455919514612000,9.328612060546876,0.4130301815152168,1.165631194450706,-0.8420292818609625
1772455919524630000,9.338630126953126,0.7475906374275684,1.105109067340195,-0.671991498824954
1772455919534648000,9.34864794921875,0.9383552013456821,1.0787434768535196,-0.36922735321111977
1772455919544666000,9.358666015625,0.9835521874219179,1.0711087441913782,-0.05550124847488477
1772455919554684000,9.368683837890625,0.7920370973974465,1.0118164511367678,0.16712695535691455
1772455919564702000,9.378701904296875,0.49534138497710223,0.8918506398022175,0.2623014763168059
1772455919574720800,9.388720703125,0.08113280733227729,0.7040456563420593,0.20085052565727382
1772455919584739000,9.398739013671875,-0.3403524833172559,0.4879772859498858,0.04026709192600101
1772455919594757000,9.408757080078125,-0.6897814225375651,0.2813002826288342,-0.1369553419170901
1772455919604775000,9.41877490234375,-0.8939163401603698,0.09832827228307724,-0.2656413065303117
1772455919614793000,9.42879296875,-0.9744260471582412,-0.03017842677310109,-0.41128531060926615
1772455919624811000,9.43881103515625,-0.8957429710656404,-0.11118614642098545,-0.5281303230421618
1772455919634829000,9.4488291015625,-0.6433855820655823,-0.17261574376523495,-0.4730236816417426
1772455919644847900,9.458847900390625,-0.25751228754520417,-0.1467595641054213,-0.3133762866515666
1772455919654866000,9.468865966796875,0.16751812836527824,-0.1105991403132677,-0.12866883081533015
1772455919664884000,9.478884033203125,0.6177461138963699,-0.059676323936134576,0.004595876422896981
1772455919674902000,9.488902099609374,1.0500333690673112,-0.05885068676695227,0.12433460100330411
1772455919684920000,9.498920166015624,1.4056816211938856,-0.15041136461123822,0.1685028285536915
1772455919694937900,9.508937744140624,1.6494816097289322,-0.24567615767046808,0.17340897650215772
1772455919704956200,9.5189560546875,1.6855594698041676,-0.28214959293454883,0.13305570413004605
1772455919714974000,9.528973876953126,1.6004647731035946,-0.2746415553919971,0.06459018026702106
1772455919724993000,9.538992919921874,1.383269298377633,-0.23964798342213034,0.05151771353036165
1772455919735010800,9.5490107421875,1.1557558432549238,-0.14895122893080115,0.1064709909999743
1772455919745028900,9.55902880859375,1.0704325984954834,-0.035369565675407645,0.17158103042263537
1772455919755047200,9.569047119140626,1.1779536465376614,0.06834142255932092,0.21915106577314436
1772455919765065000,9.57906494140625,1.3399287538230418,0.07469181449934839,0.2592254481386393
1772455919775083000,9.5890830078125,1.4011743729025126,0.06562500320747494,0.2655258634570986
1772455919785101000,9.59910107421875,1.356241590720415,0.1002763376109302,0.29485907157771285
1772455919795119000,9.609119140625,1.2362643812090157,0.19427870951890944,0.36218485082108526
1772455919805137200,9.61913720703125,1.1000000537633896,0.2756877034440636,0.500244939109683
1772455919815155000,9.629155029296875,0.9235574451863765,0.2803087873734534,0.57422370996885
1772455919825173200,9.63917333984375,0.6962976725637913,0.2079267111212015,0.5381643353983759
1772455919835191000,9.64919091796875,0.45799218979179857,0.023516484665870665,0.399969697477296
1772455919845209000,9.659208984375,0.22794950845241546,-0.1723252363860607,0.22307653212118891
1772455919855227000,9.669226806640625,0.11775251919925211,-0.3168371676951647,0.08369736059065908
1772455919865245200,9.6792451171875,0.0941904418259859,-0.31504999201744793,0.08068919175062328
1772455919875264300,9.68926416015625,0.1346457863330841,-0.2599585116535425,0.12226762200351804
1772455919885282000,9.699281982421875,0.20813129378259182,-0.3007721680790186,0.16579192562717943
1772455919895300000,9.709300048828124,0.2301397119730711,-0.4019133058257401,0.2612444963434711
1772455919905318100,9.719318115234374,0.20654314780831337,-0.49513519488051533,0.2805778866384178
1772455919915336200,9.729336181640624,0.06623334436416625,-0.6141925130680204,0.17421170771978794
1772455919925354000,9.73935400390625,-0.1805032821446657,-0.6856830473080276,0.07154854803755879
1772455919935372000,9.7493720703125,-0.37430677536726,-0.689687460643798,-0.11394187486991286
1772455919945390000,9.75939013671875,-0.4412549900025129,-0.7096743098787963,-0.2381909530142322
1772455919955409200,9.7694091796875,-0.4298357703655958,-0.7287383451804518,-0.24516221679896114
1772455919965427200,9.77942724609375,-0.3537292667627334,-0.7530848509296775,-0.26611750920731575
1772455919975445000,9.789445068359376,-0.3239233265638351,-0.7963670894257724,-0.34226547733172774
1772455919985463000,9.799463134765626,-0.33252339712679385,-0.8162875954262911,-0.3981056571710855
1772455919995481000,9.809481201171875,-0.27495442073345183,-0.7652987280756235,-0.38740065021812914
1772455920005499100,9.8194990234375,-0.02585691031217575,-0.7427591256178915,-0.32560912422630933
1772455920015517000,9.829516845703125,0.2025543704330921,-0.8478430096410214,-0.23035103490250183
1772455920025536000,9.839535888671875,0.28194237992465493,-1.0598884081274271,-0.10519195664064027
1772455920035554000,9.849553955078125,0.14916297198534012,-1.1398185616716743,-0.010290964525658636
1772455920045572000,9.859572021484375,-0.0008978256225585938,-1.16582934737131,-0.05564963483647443
1772455920055590100,9.869590087890625,-0.1833534108787775,-1.1884098663613198,-0.14284697550525888
1772455920065608000,9.87960791015625,-0.5074263750463723,-1.128523699066788,-0.23513861623890697
1772455920075626200,9.889626220703125,-0.9396452411562204,-0.90710622273162,-0.31653460455201565
1772455920085644000,9.89964404296875,-1.3574363534629343,-0.5880825047776103,-0.2768429744264111
1772455920095662000,9.909662109375,-1.7263064907342194,-0.2940609800025821,-0.12419589578551239
1772455920105681000,9.919680908203125,-2.049241975304484,-0.014206950659304857,-0.006450540404341881
1772455920115699000,9.929698974609375,-2.1548229951947926,0.27615079091116784,0.07832332113580778
1772455920125717200,9.93971728515625,-1.9820669661760328,0.4769599251121282,0.19297712540104983
1772455920135735000,9.949735107421875,-1.5294272433280944,0.6186003926381468,0.29560300354650243
1772455920145753000,9.959753173828124,-0.9905360549598932,0.6457314145393669,0.4279084920974448
1772455920155771100,9.969771240234374,-0.46551323294639585,0.622838322468847,0.44850302490200844
1772455920165789200,9.9797890625,0.10437982740700244,0.5459338003560901,0.45516299424786116
1772455920175807000,9.989806884765626,0.6100199035584927,0.4363013131178915,0.4730118085408583
1772455920185826000,9.999825927734374,1.037280855000019,0.35988399000018834,0.5466433368649334
1772455920195844000,10.009843994140626,1.2941466613352297,0.2919105239704251,0.6448443295065314
1772455920205862100,10.019862060546876,1.3886620973318815,0.2816552335463464,0.6658961045593023
1772455920215880200,10.029880126953126,1.3290472943246363,0.3247191531166434,0.6281855287156999
1772455920225898000,10.03989794921875,1.1702028862804175,0.4513089126355946,0.657398398392275
1772455920235916000,10.049916015625,0.943556861642003,0.6266138954848051,0.7381837805263698
1772455920245934000,10.05993408203125,0.6457464659780263,0.8871453847207128,0.7054389373313635
1772455920255953200,10.069953125,0.317326997038722,1.1968958090253174,0.5397081307742745
1772455920265971000,10.079970947265625,0.0978156465858221,1.458470085312426,0.41651871775072064
1772455920275989000,10.089989013671875,0.014487375035881996,1.7113615811891854,0.36166502819806334
1772455920286007000,10.100007080078125,0.018206103298068047,1.9289166830077766,0.3898430018689483
1772455920296025000,10.110025146484375,0.08473404669463634,2.1125578247867525,0.5215257736779749
1772455920306043100,10.120043212890625,0.15739596280157564,2.2470680020414293,0.7094828058946877
1772455920316061000,10.13006103515625,0.2160264309465885,2.2945739957123994,0.9339698258683085
1772455920326080000,10.140080078125,0.21745032626986502,2.2398241683930156,1.119039758341387
1772455920336098000,10.15009814453125,0.20718086118996143,2.105437325257063,1.214626988288015
1772455920346116000,10.1601162109375,0.19938333918154238,1.914176063863188,1.2026492579855024
1772455920356134000,10.1701337890625,0.1755500436514616,1.7070099618509411,1.148033286178857
1772455920366152000,10.18015185546875,0.06817687964737415,1.5077904349289835,1.086972595212236
1772455920376170200,10.190170166015625,-0.14174246659576892,1.3281795715793967,0.9909714507024735
1772455920386188000,10.20018798828125,-0.33467385315895076,1.19493239999786,0.7924487469382584
1772455920396206000,10.2102060546875,-0.4666518815875053,1.1454562752977013,0.6596375556211919
1772455920406225000,10.220224853515624,-0.48330900187790393,1.1050170051425694,0.5448175462098792
1772455920416243200,10.2302431640625,-0.4282107995122671,1.037787927739322,0.46566988481283184
1772455920426261000,10.240260986328124,-0.3206611098974943,0.9279339067049324,0.39530261898171154
1772455920436279000,10.250279052734374,-0.2912345244050026,0.8392951076567172,0.3385664036180824
1772455920446297000,10.260297119140626,-0.32914310703873634,0.7748353488363325,0.21533580006761474
1772455920456315100,10.270315185546876,-0.3346908042937517,0.7158274256810545,0.09757745391577481
1772455920466333200,10.280333251953126,-0.31165245853364465,0.6635499798245728,0.12312335291686467
1772455920476351000,10.29035107421875,-0.2671463773310184,0.5492892482638358,0.15717221878198906
1772455920486370000,10.3003701171875,-0.22857670044004916,0.36522403585389257,0.1191580660150852
1772455920496387800,10.310387939453125,-0.09733516959249973,0.13701836068332193,0.02988300575679168
1772455920506406100,10.32040625,0.06670271544158458,-0.06162862704768777,-0.1131229414361529
1772455920516424000,10.330423828125,0.23640286402106284,-0.20676175899505614,-0.2363671168542467
1772455920526442000,10.34044189453125,0.3965051631718874,-0.3460392967820167,-0.3304391381986439
1772455920536460300,10.350460205078125,0.49908700124621386,-0.4335493840612471,-0.28293444143561647
1772455920546478000,10.36047802734375,0.5417278730988502,-0.39796062267720694,-0.2607631790999323
1772455920556497200,10.3704970703125,0.5705564926981925,-0.35799393846988675,-0.20878172051534055
1772455920566515000,10.380514892578125,0.5048538942098617,-0.34957419290989633,-0.08310403434000908
1772455920576533000,10.390532958984375,0.3977677304536104,-0.30959990991801023,0.03657357117030769
1772455920586551000,10.400551025390625,0.22284254070222376,-0.3085119685508311,0.09101776660662143
1772455920596569000,10.410569091796875,0.1302624566823244,-0.38660190105587244,0.06148951083794236
1772455920606587100,10.420587158203125,0.03574877425134182,-0.4721523786999285,0.09102737468518317
1772455920616605000,10.43060498046875,-0.09483809207975864,-0.5630969704724847,0.15103472067397086
1772455920626623200,10.440623291015624,-0.22291735950410366,-0.561233514688164,0.20726777228843418
1772455920636642000,10.45064208984375,-0.3282061184495687,-0.520880169250816,0.32283516600094736
1772455920646660000,10.46066015625,-0.39324353102743625,-0.45722325124591584,0.41710276471637187
1772455920656678000,10.470677978515624,-0.3836334066390991,-0.4531450420215726,0.4076365057781338
1772455920666696200,10.4806962890625,-0.4285550829052925,-0.4881757311314344,0.3619578736647963
1772455920676714000,10.4907138671875,-0.5106693024903536,-0.5321526738934219,0.3625887189142406
1772455920686732000,10.50073193359375,-0.5744716203153133,-0.540933800111711,0.3928022170007229
1772455920696750000,10.51075,-0.5794195981115102,-0.5248327062688768,0.4111197813166305
1772455920706768100,10.52076806640625,-0.5694172595351934,-0.49713499039560555,0.4217712314514443
1772455920716787200,10.530787109375,-0.5873100591003895,-0.39917482077255845,0.3991211178239435
1772455920726805000,10.540804931640626,-0.5122445889830589,-0.2972983544886112,0.31747349283732473
1772455920736823000,10.550822998046876,-0.34177754768431184,-0.28121026625782247,0.2657827608276158
1772455920746840800,10.5608408203125,-0.15447802952826023,-0.3273446793146431,0.2743395767707377
1772455920756859100,10.570859130859375,-0.060551791596412656,-0.4373797560043633,0.2713040084671229
1772455920766877000,10.580876953125,-0.17438801413476465,-0.5325206304229796,0.2238742218375206
1772455920776895000,10.59089501953125,-0.5028261877745389,-0.5418145284689962,0.21817418356500565
1772455920786914000,10.6009140625,-0.8634732711017131,-0.41629108300730583,0.2211483040049672
1772455920796932000,10.61093212890625,-1.1677934870511293,-0.20069135304018854,0.1677211035914719
1772455920806950400,10.620950439453125,-1.4130015888184309,0.05703326208144426,0.06316102424673736
1772455920816968200,10.63096826171875,-1.602595939913392,0.28685572479888793,0.05173990491367876
1772455920826986200,10.640986328125,-1.63659874728024,0.567052430099994,0.059021659419685596
1772455920837004500,10.651004638671875,-1.4296189616203308,0.7801508447706699,0.1432749368600547
1772455920847022300,10.661022216796875,-1.084264139971137,0.8375653612546622,0.24193857857733964
1772455920857040400,10.671040283203125,-0.6448182452172041,0.8590431796997785,0.29499994135312735
1772455920867059200,10.68105908203125,-0.23856734857857226,0.84664751624614,0.34749271046072244
1772455920877077200,10.6910771484375,0.08939970041811465,0.7638032288208604,0.40333077140823004
1772455920887095300,10.70109521484375,0.3288941007137298,0.6571773760527372,0.50051630339697
1772455920897113300,10.71111328125,0.41587680311799047,0.6090881756663322,0.579693300486356
1772455920907131100,10.721131103515624,0.31834406512677665,0.6746132256306707,0.6342454132765531
1772455920917149200,10.731149169921874,0.20167349594533443,0.7795264292620122,0.6140022511929273
1772455920927167500,10.74116748046875,0.22494272785186767,0.8934870088323951,0.5120115108795463
1772455920937185300,10.751185302734376,0.13686229333877561,1.1016216636158525,0.4204203282991424
1772455920947204400,10.761204345703124,-0.037113048341870306,1.252581017498672,0.25519591862792146
1772455920957222100,10.77122216796875,-0.029781974801421165,0.8974724252067505,0.7808584085181355
1772455920967240400,10.781240478515626,0.007713935378193855,0.7125161091759801,1.020504053852707
1772455920977258200,10.79125830078125,-0.2773813556194305,0.9247598067134618,0.723315224153176
1772455920987276300,10.8012763671875,-0.6006412498384713,1.2211759715400636,0.2775357059309259
1772455920997294000,10.811294189453125,-0.6839952403515577,1.4471623632259667,0.4463011309435591
1772455921007312400,10.8213125,-0.7287105803906917,1.575729414167255,0.6501688124649226
