time,seconds_elapsed,z,y,x
1772455910249085200,0.063085205078125,-0.9789886474609375,-0.1146697998046875,0.014678955078125
1772455910259104300,0.073104248046875,-0.9739532470703125,-0.115234375,0.0146636962890625
1772455910269122300,0.083122314453125,-0.9747467041015625,-0.114013671875,0.0222015380859375
1772455910279140400,0.093140380859375,-0.9777984619140625,-0.1109161376953125,0.0251312255859375
1772455910289158400,0.103158447265625,-0.9801483154296875,-0.1062774658203125,0.023773193359375
1772455910299176200,0.11317626953125,-0.986968994140625,-0.1063995361328125,0.024078369140625
1772455910309194200,0.1231943359375,-0.9933624267578125,-0.101043701171875,0.0295867919921875
1772455910319213300,0.13321337890625,-0.991455078125,-0.0984649658203125,0.0326385498046875
1772455910329231400,0.1432314453125,-0.9877166748046875,-0.1006011962890625,0.0293426513671875
1772455910339249400,0.15324951171875,-0.9831390380859375,-0.10504150390625,0.0220947265625
1772455910349267200,0.16326708984375,-0.9776153564453125,-0.106658935546875,0.018585205078125
1772455910359285200,0.17328515625,-0.9703369140625,-0.1067352294921875,0.017364501953125
1772455910369303300,0.18330322265625,-0.9603424072265625,-0.109100341796875,0.01837158203125
1772455910379321300,0.1933212890625,-0.9577178955078125,-0.114166259765625,0.0180511474609375
1772455910389340400,0.20334033203125,-0.9653778076171875,-0.11297607421875,0.014434814453125
1772455910399358200,0.213358154296875,-0.9724578857421875,-0.1117095947265625,0.00921630859375
1772455910409376300,0.223376220703125,-0.9775848388671875,-0.1137542724609375,0.002166748046875
1772455910419394300,0.233394287109375,-0.9858856201171875,-0.115509033203125,0.001861572265625
1772455910429412400,0.243412353515625,-0.996795654296875,-0.1156005859375,0.00726318359375
1772455910439430100,0.25343017578125,-0.9998931884765625,-0.11224365234375,0.006988525390625
1772455910449448400,0.263448486328125,-0.9949798583984375,-0.11083984375,0.0046844482421875
1772455910459467500,0.273467529296875,-0.988739013671875,-0.1148834228515625,0.002838134765625
1772455910469485300,0.2834853515625,-0.9785614013671875,-0.11907958984375,-0.0029754638671875
1772455910479503400,0.29350341796875,-0.9747772216796875,-0.1174163818359375,-0.003662109375
1772455910489521200,0.303521240234375,-0.9802398681640625,-0.1161041259765625,-0.0050506591796875
1772455910499539500,0.31353955078125,-1.001068115234375,-0.1129302978515625,-0.0059814453125
1772455910509557200,0.32355712890625,-1.020294189453125,-0.1074981689453125,-0.005859375
1772455910519575300,0.3335751953125,-1.031341552734375,-0.100006103515625,-0.007110595703125
1772455910529594400,0.343594482421875,-1.02667236328125,-0.096221923828125,-0.0101776123046875
1772455910539612400,0.3536123046875,-1.01873779296875,-0.100189208984375,-0.0066070556640625
1772455910549630500,0.36363037109375,-1.0152740478515625,-0.103668212890625,0.0000457763671875
1772455910559648300,0.373648193359375,-1.01220703125,-0.1018829345703125,0.0068206787109375
1772455910569666300,0.383666259765625,-1.0097808837890625,-0.0997161865234375,0.0123291015625
1772455910579684400,0.393684326171875,-1.00640869140625,-0.102874755859375,0.0107421875
1772455910589702400,0.403702392578125,-1.0055084228515625,-0.1134033203125,0.0040283203125
1772455910599721200,0.41372119140625,-1.0045928955078125,-0.1226043701171875,0.001068115234375
1772455910609739300,0.4237392578125,-1.0046539306640625,-0.1331329345703125,-0.004547119140625
1772455910619757300,0.43375732421875,-1.0038909912109375,-0.141632080078125,-0.0030670166015625
1772455910629775400,0.443775390625,-1.002288818359375,-0.14599609375,-0.0008087158203125
1772455910639793400,0.45379345703125,-0.9918670654296875,-0.142852783203125,0.0011138916015625
1772455910649811200,0.463811279296875,-0.985443115234375,-0.1404876708984375,0.009521484375
1772455910659829500,0.47382958984375,-0.9973602294921875,-0.152740478515625,0.042144775390625
1772455910669848300,0.483848388671875,-1.0201568603515625,-0.156494140625,0.045562744140625
1772455910679866400,0.493866455078125,-1.0456390380859375,-0.1531829833984375,0.0325775146484375
1772455910689884400,0.503884521484375,-1.05218505859375,-0.1443939208984375,0.0158538818359375
1772455910699902200,0.513902099609375,-1.038482666015625,-0.13323974609375,0.007354736328125
1772455910709920500,0.52392041015625,-1.009613037109375,-0.1209564208984375,0.008514404296875
1772455910719938300,0.533938232421875,-0.982147216796875,-0.1135711669921875,0.0166015625
1772455910729957400,0.543957275390625,-0.9599761962890625,-0.1195526123046875,0.021453857421875
1772455910739975200,0.55397509765625,-0.9487762451171875,-0.12860107421875,0.021087646484375
1772455910749993200,0.5639931640625,-0.9608001708984375,-0.13592529296875,0.011444091796875
1772455910760011300,0.57401123046875,-0.9879150390625,-0.14166259765625,-0.001068115234375
1772455910770029300,0.584029296875,-1.003997802734375,-0.140838623046875,-0.00634765625
1772455910780047400,0.59404736328125,-1.0042266845703125,-0.1374053955078125,-0.00079345703125
1772455910790065700,0.604065673828125,-0.99859619140625,-0.132537841796875,0.012542724609375
1772455910800084700,0.614084716796875,-0.984588623046875,-0.1463775634765625,0.047027587890625
1772455910810102800,0.624102783203125,-0.97332763671875,-0.16943359375,0.0590667724609375
1772455910820120800,0.634120849609375,-0.9596099853515625,-0.1851654052734375,0.0591888427734375
1772455910830138600,0.644138671875,-0.9459075927734375,-0.1789703369140625,0.046905517578125
1772455910840156700,0.65415673828125,-0.927581787109375,-0.170745849609375,0.04840087890625
1772455910850174700,0.6641748046875,-0.9022979736328125,-0.171722412109375,0.065216064453125
1772455910860192800,0.67419287109375,-0.871551513671875,-0.1717681884765625,0.0830841064453125
1772455910870211800,0.6842119140625,-0.8541412353515625,-0.1627960205078125,0.1102447509765625
1772455910880229600,0.694229736328125,-0.8536224365234375,-0.1491851806640625,0.1380767822265625
1772455910890248000,0.704248046875,-0.864715576171875,-0.14111328125,0.1544647216796875
1772455910900265700,0.714265625,-0.8810272216796875,-0.133880615234375,0.16595458984375
1772455910910283800,0.72428369140625,-0.90447998046875,-0.139129638671875,0.164581298828125
1772455910920301600,0.734301513671875,-0.9317779541015625,-0.1424407958984375,0.1514892578125
1772455910930320000,0.74431982421875,-0.9194488525390625,-0.132965087890625,0.13037109375
1772455910940338700,0.754338623046875,-0.9235382080078125,-0.1253662109375,0.1432342529296875
1772455910950356700,0.764356689453125,-0.969390869140625,-0.13958740234375,0.1575164794921875
1772455910960374800,0.774374755859375,-1.008758544921875,-0.148712158203125,0.1124420166015625
1772455910970392800,0.784392822265625,-1.0549163818359375,-0.15460205078125,0.076019287109375
1772455910980411000,0.794410888671875,-1.06903076171875,-0.1633148193359375,0.0637359619140625
1772455910990428700,0.8044287109375,-1.0591583251953125,-0.1650390625,0.065521240234375
1772455911000446700,0.81444677734375,-1.036773681640625,-0.1648101806640625,0.083404541015625
1772455911010465500,0.824465576171875,-1.0177764892578125,-0.1613311767578125,0.1070404052734375
1772455911020483800,0.83448388671875,-1.0045623779296875,-0.15081787109375,0.1303253173828125
1772455911030501600,0.844501708984375,-0.999176025390625,-0.1408538818359375,0.1531982421875
1772455911040519700,0.854519775390625,-0.9984588623046875,-0.1331787109375,0.1630859375
1772455911050537700,0.864537841796875,-0.9994354248046875,-0.1307373046875,0.1642913818359375
1772455911060555800,0.8745556640625,-0.9945831298828125,-0.13128662109375,0.168121337890625
1772455911070574800,0.884574951171875,-0.9946746826171875,-0.134033203125,0.1642608642578125
1772455911080592600,0.894592529296875,-1.003204345703125,-0.1356048583984375,0.1500396728515625
1772455911090610700,0.904610595703125,-1.012359619140625,-0.13970947265625,0.1270599365234375
1772455911100628700,0.914628662109375,-1.0221405029296875,-0.145782470703125,0.104156494140625
1772455911110646800,0.924646728515625,-1.0273895263671875,-0.154815673828125,0.087890625
1772455911120664800,0.934664794921875,-1.0303955078125,-0.1620330810546875,0.0711212158203125
1772455911130682600,0.9446826171875,-1.0203094482421875,-0.1642608642578125,0.054901123046875
1772455911140701700,0.95470166015625,-0.9983673095703125,-0.168792724609375,0.040771484375
1772455911150719700,0.9647197265625,-0.97216796875,-0.174560546875,0.0296630859375
1772455911160737800,0.97473779296875,-0.9552764892578125,-0.1805572509765625,0.0245819091796875
1772455911170755600,0.984755615234375,-0.9461212158203125,-0.1830902099609375,0.0206451416015625
1772455911180773600,0.994773681640625,-0.9418792724609375,-0.1798858642578125,0.0251922607421875
1772455911190791700,1.004791748046875,-0.93658447265625,-0.178924560546875,0.0427398681640625
1772455911200809700,1.014809814453125,-0.936004638671875,-0.1754302978515625,0.0584716796875
1772455911210828800,1.024828857421875,-0.9380950927734375,-0.1688079833984375,0.0602264404296875
1772455911220846600,1.0348466796875,-0.9416046142578125,-0.1641693115234375,0.0633392333984375
1772455911230864600,1.04486474609375,-0.9470062255859375,-0.1678466796875,0.0720977783203125
1772455911240882700,1.054882568359375,-0.9514007568359375,-0.1702880859375,0.081573486328125
1772455911250900700,1.064900634765625,-0.9561614990234375,-0.1680755615234375,0.0859527587890625
1772455911260918500,1.07491845703125,-0.958587646484375,-0.1693878173828125,0.0910797119140625
1772455911270936800,1.084936767578125,-0.966522216796875,-0.1751708984375,0.09442138671875
1772455911280956000,1.094955810546875,-0.9856109619140625,-0.177947998046875,0.0828857421875
1772455911290973700,1.1049736328125,-1.008514404296875,-0.1799774169921875,0.0714569091796875
1772455911300991700,1.11499169921875,-1.0252838134765625,-0.179412841796875,0.06390380859375
1772455911311009500,1.125009521484375,-1.02777099609375,-0.175750732421875,0.0477752685546875
1772455911321027800,1.13502783203125,-1.0150299072265625,-0.177093505859375,0.0450592041015625
1772455911331045600,1.145045654296875,-0.9989776611328125,-0.1867218017578125,0.05328369140625
1772455911341064700,1.155064697265625,-0.991943359375,-0.1913909912109375,0.0555877685546875
1772455911351082800,1.165082763671875,-0.9873199462890625,-0.189178466796875,0.049957275390625
1772455911361100800,1.175100830078125,-0.98394775390625,-0.188018798828125,0.05126953125
1772455911371118800,1.185118896484375,-0.980926513671875,-0.1916046142578125,0.0565185546875
1772455911381136600,1.19513671875,-0.9921722412109375,-0.198272705078125,0.0540771484375
1772455911391154700,1.20515478515625,-1.0062103271484375,-0.1943511962890625,0.043182373046875
1772455911401172700,1.2151728515625,-1.008880615234375,-0.192596435546875,0.0384521484375
1772455911411191800,1.22519189453125,-1.004547119140625,-0.1976776123046875,0.040374755859375
1772455911421209900,1.2352099609375,-0.9965362548828125,-0.2025299072265625,0.0396881103515625
1772455911431227600,1.2452275390625,-0.9803466796875,-0.2052001953125,0.04296875
1772455911441245700,1.25524560546875,-0.960784912109375,-0.2030792236328125,0.0545196533203125
1772455911451263700,1.265263671875,-0.938720703125,-0.2014617919921875,0.069610595703125
1772455911461281800,1.27528173828125,-0.920135498046875,-0.20355224609375,0.0831298828125
1772455911471299600,1.285299560546875,-0.909881591796875,-0.2059478759765625,0.095458984375
1772455911481318700,1.295318603515625,-0.9104156494140625,-0.204559326171875,0.1058807373046875
1772455911491336700,1.305336669921875,-0.916259765625,-0.2004241943359375,0.109771728515625
1772455911501354800,1.315354736328125,-0.919830322265625,-0.199066162109375,0.107574462890625
1772455911511372800,1.325372802734375,-0.9259185791015625,-0.20245361328125,0.1071319580078125
1772455911521390600,1.335390625,-0.93463134765625,-0.2035064697265625,0.11163330078125
1772455911531409000,1.345408935546875,-0.944610595703125,-0.2018280029296875,0.119598388671875
1772455911541426700,1.3554267578125,-0.9549407958984375,-0.201141357421875,0.1210784912109375
1772455911551445800,1.36544580078125,-0.9627838134765625,-0.20013427734375,0.1185302734375
1772455911561463800,1.3754638671875,-0.9626617431640625,-0.1978607177734375,0.1204986572265625
1772455911571481600,1.385481689453125,-0.9641876220703125,-0.199066162109375,0.119415283203125
1772455911581500000,1.3955,-0.9734954833984375,-0.2020721435546875,0.1088714599609375
1772455911591517700,1.405517578125,-0.9812164306640625,-0.2028656005859375,0.0991973876953125
1772455911601535700,1.41553564453125,-0.984466552734375,-0.1998138427734375,0.100372314453125
1772455911611553800,1.4255537109375,-0.98974609375,-0.2007904052734375,0.1040191650390625
1772455911621572600,1.435572509765625,-0.9971923828125,-0.199127197265625,0.1022186279296875
1772455911631590700,1.445590576171875,-0.9984130859375,-0.203125,0.1020965576171875
1772455911641608700,1.455608642578125,-1.0053863525390625,-0.210540771484375,0.0988311767578125
1772455911651626800,1.465626708984375,-1.009002685546875,-0.2175445556640625,0.084381103515625
1772455911661644800,1.475644775390625,-1.0166015625,-0.2236328125,0.0651397705078125
1772455911671662800,1.485662841796875,-1.0135345458984375,-0.230804443359375,0.0513763427734375
1772455911681680600,1.4956806640625,-1.0064697265625,-0.2361297607421875,0.0448455810546875
1772455911691699700,1.50569970703125,-0.9940948486328125,-0.2367401123046875,0.047607421875
1772455911701717500,1.515717529296875,-0.9819793701171875,-0.2362060546875,0.063262939453125
1772455911711735800,1.52573583984375,-0.975860595703125,-0.235992431640625,0.0783233642578125
1772455911721753900,1.53575390625,-0.97735595703125,-0.2329559326171875,0.090362548828125
1772455911731771600,1.545771728515625,-0.9879302978515625,-0.2316436767578125,0.092498779296875
1772455911741789700,1.555789794921875,-1.0012054443359375,-0.23388671875,0.0856170654296875
1772455911751807700,1.565807861328125,-1.0115966796875,-0.238861083984375,0.0789642333984375
1772455911761826800,1.575826904296875,-1.0081024169921875,-0.2387237548828125,0.0777435302734375
1772455911771844600,1.5858447265625,-1.0025482177734375,-0.2373046875,0.07232666015625
1772455911781862700,1.595862548828125,-0.9899749755859375,-0.2362518310546875,0.0648040771484375
1772455911791880700,1.605880615234375,-0.974212646484375,-0.2396240234375,0.074462890625
1772455911801898500,1.6158984375,-0.962493896484375,-0.240692138671875,0.0829925537109375
1772455911811916500,1.62591650390625,-0.96795654296875,-0.24273681640625,0.079437255859375
1772455911821934600,1.6359345703125,-0.9728546142578125,-0.23248291015625,0.0736846923828125
1772455911831953400,1.645953369140625,-0.9814910888671875,-0.2174835205078125,0.071746826171875
1772455911841971700,1.6559716796875,-0.999847412109375,-0.1988677978515625,0.0600433349609375
1772455911851989500,1.665989501953125,-1.024200439453125,-0.1859130859375,0.042449951171875
1772455911862007600,1.676007568359375,-1.0480499267578125,-0.176727294921875,0.0274505615234375
1772455911872025600,1.686025634765625,-1.071807861328125,-0.1703033447265625,0.0082855224609375
1772455911882043600,1.696043701171875,-1.0909576416015625,-0.1592559814453125,-0.005523681640625
1772455911892061700,1.706061767578125,-1.097747802734375,-0.1422882080078125,-0.0125885009765625
1772455911902080500,1.71608056640625,-1.083404541015625,-0.12939453125,-0.016510009765625
1772455911912098600,1.7260986328125,-1.04766845703125,-0.1190948486328125,-0.00982666015625
1772455911922116600,1.73611669921875,-1.0116729736328125,-0.114959716796875,-0.0035552978515625
1772455911932134700,1.746134765625,-0.984466552734375,-0.1127777099609375,-0.0038299560546875
1772455911942152400,1.75615234375,-0.9650726318359375,-0.1094512939453125,-0.0056304931640625
1772455911952170500,1.76617041015625,-0.957489013671875,-0.111083984375,-0.010986328125
1772455911962188500,1.7761884765625,-0.95709228515625,-0.119171142578125,-0.0174407958984375
1772455911972207600,1.78620751953125,-0.963470458984375,-0.1227264404296875,-0.0306854248046875
1772455911982225700,1.7962255859375,-0.9752960205078125,-0.125823974609375,-0.0393218994140625
1772455911992243500,1.806243408203125,-0.9886627197265625,-0.1344451904296875,-0.0531158447265625
1772455912002261800,1.81626171875,-1.003204345703125,-0.1512603759765625,-0.0767364501953125
1772455912012279600,1.826279541015625,-1.020721435546875,-0.161163330078125,-0.105987548828125
1772455912022297600,1.836297607421875,-1.037139892578125,-0.164337158203125,-0.1309051513671875
1772455912032315400,1.8463154296875,-1.047943115234375,-0.1596832275390625,-0.1414031982421875
1772455912042334500,1.85633447265625,-1.0543975830078125,-0.146575927734375,-0.1511688232421875
1772455912052352800,1.866352783203125,-1.0525360107421875,-0.13397216796875,-0.15606689453125
1772455912062370600,1.87637060546875,-1.0439605712890625,-0.12115478515625,-0.159210205078125
1772455912072388600,1.886388671875,-1.027008056640625,-0.1083526611328125,-0.1656036376953125
1772455912082406400,1.896406494140625,-1.0052947998046875,-0.0990142822265625,-0.1658172607421875
1772455912092424700,1.9064248046875,-0.9873504638671875,-0.097137451171875,-0.1599578857421875
1772455912102442500,1.9164423828125,-0.971588134765625,-0.0962066650390625,-0.156524658203125
1772455912112461600,1.926461669921875,-0.9624786376953125,-0.0916748046875,-0.1604766845703125
1772455912122479600,1.936479736328125,-0.9535064697265625,-0.0864715576171875,-0.159088134765625
1772455912132497700,1.94649755859375,-0.9385528564453125,-0.0821685791015625,-0.1485595703125
1772455912142515700,1.956515625,-0.9258270263671875,-0.0831146240234375,-0.129791259765625
1772455912152533500,1.966533447265625,-0.91796875,-0.0930938720703125,-0.11419677734375
1772455912162551600,1.976551513671875,-0.9116363525390625,-0.107147216796875,-0.0989990234375
1772455912172569600,1.986569580078125,-0.9156951904296875,-0.1237335205078125,-0.082550048828125
1772455912182588700,1.996588623046875,-0.919464111328125,-0.135986328125,-0.0722503662109375
1772455912192606700,2.006606689453125,-0.9228057861328125,-0.144866943359375,-0.0689544677734375
1772455912202624500,2.01662451171875,-0.927825927734375,-0.1514129638671875,-0.0648345947265625
1772455912212642600,2.026642578125,-0.938507080078125,-0.160400390625,-0.06268310546875
1772455912222660600,2.03666064453125,-0.9542236328125,-0.1680755615234375,-0.0641632080078125
1772455912232678700,2.0466787109375,-0.9681549072265625,-0.1695098876953125,-0.06854248046875
1772455912242696400,2.056696533203125,-0.9718170166015625,-0.1729736328125,-0.072296142578125
1772455912252715500,2.066715576171875,-0.9621124267578125,-0.175445556640625,-0.0632476806640625
1772455912262733800,2.07673388671875,-0.945556640625,-0.1742401123046875,-0.05548095703125
1772455912272751600,2.086751708984375,-0.9334869384765625,-0.1766815185546875,-0.0472259521484375
1772455912282769700,2.096769775390625,-0.920623779296875,-0.1857452392578125,-0.04107666015625
1772455912292787500,2.106787353515625,-0.9075469970703125,-0.19384765625,-0.0392608642578125
1772455912302805800,2.1168056640625,-0.895843505859375,-0.2065277099609375,-0.041351318359375
1772455912312823600,2.126823486328125,-0.8846282958984375,-0.21771240234375,-0.0420379638671875
1772455912322842600,2.136842529296875,-0.8863372802734375,-0.22674560546875,-0.04718017578125
1772455912332860700,2.146860595703125,-0.8912506103515625,-0.242828369140625,-0.0391693115234375
1772455912342878500,2.15687841796875,-0.8979949951171875,-0.251312255859375,-0.03424072265625
1772455912352896800,2.166896728515625,-0.9107513427734375,-0.2507171630859375,-0.027313232421875
1772455912362914600,2.17691455078125,-0.9275054931640625,-0.250274658203125,-0.0262603759765625
1772455912372932600,2.1869326171875,-0.927825927734375,-0.254547119140625,-0.026763916015625
1772455912382950700,2.19695068359375,-0.9354095458984375,-0.260528564453125,-0.026397705078125
1772455912392969700,2.2069697265625,-0.9453277587890625,-0.262359619140625,-0.0348358154296875
1772455912402987500,2.216987548828125,-0.9697265625,-0.269561767578125,-0.0423583984375
1772455912413005600,2.227005615234375,-1.00897216796875,-0.2786407470703125,-0.0507965087890625
1772455912423023600,2.237023681640625,-1.020263671875,-0.2792205810546875,-0.0528717041015625
1772455912433041700,2.247041748046875,-1.0050811767578125,-0.280120849609375,-0.0450439453125
1772455912443059700,2.257059814453125,-0.9751739501953125,-0.282470703125,-0.0426177978515625
1772455912453077500,2.267077392578125,-0.9447021484375,-0.296295166015625,-0.035675048828125
1772455912463096600,2.2770966796875,-0.9283905029296875,-0.3154754638671875,-0.0269012451171875
1772455912473114400,2.2871142578125,-0.928009033203125,-0.3257598876953125,-0.032806396484375
1772455912483132700,2.297132568359375,-0.9341583251953125,-0.3273468017578125,-0.0440216064453125
1772455912493150700,2.307150634765625,-0.9470672607421875,-0.326995849609375,-0.0546112060546875
1772455912503168500,2.31716845703125,-0.9619293212890625,-0.330108642578125,-0.072021484375
1772455912513186800,2.327186767578125,-0.9678955078125,-0.337860107421875,-0.0879974365234375
1772455912523204600,2.33720458984375,-0.96435546875,-0.3431549072265625,-0.10015869140625
1772455912533223700,2.3472236328125,-0.9693756103515625,-0.3424072265625,-0.109619140625
1772455912543241500,2.357241455078125,-0.9847259521484375,-0.3332061767578125,-0.1153106689453125
1772455912553259500,2.367259521484375,-1.0047149658203125,-0.318450927734375,-0.1148834228515625
1772455912563277600,2.377277587890625,-1.01629638671875,-0.30194091796875,-0.1058807373046875
1772455912573295600,2.387295654296875,-1.00775146484375,-0.280548095703125,-0.0855560302734375
1772455912583313700,2.397313720703125,-0.9885101318359375,-0.2698516845703125,-0.0566558837890625
1772455912593331500,2.40733154296875,-0.983917236328125,-0.2760772705078125,-0.0257568359375
1772455912603350500,2.4173505859375,-0.9933624267578125,-0.283477783203125,-0.012847900390625
1772455912613368600,2.42736865234375,-1.0102081298828125,-0.2849273681640625,-0.015899658203125
1772455912623386600,2.43738671875,-1.033660888671875,-0.2836456298828125,-0.0235137939453125
1772455912633404400,2.447404296875,-1.054107666015625,-0.275421142578125,-0.026214599609375
1772455912643422700,2.457422607421875,-1.0717926025390625,-0.2627716064453125,-0.0272064208984375
1772455912653440800,2.467440673828125,-1.082672119140625,-0.2464752197265625,-0.032073974609375
1772455912663458600,2.47745849609375,-1.0841217041015625,-0.2274017333984375,-0.032958984375
1772455912673476600,2.4874765625,-1.0773468017578125,-0.2095794677734375,-0.029052734375
1772455912683495400,2.497495361328125,-1.0510711669921875,-0.1932525634765625,-0.011199951171875
1772455912693513700,2.507513671875,-1.014190673828125,-0.181182861328125,0.0148162841796875
1772455912703531500,2.517531494140625,-0.9796600341796875,-0.174041748046875,0.0418243408203125
1772455912713549600,2.527549560546875,-0.9545440673828125,-0.1689300537109375,0.0722503662109375
1772455912723567400,2.5375673828125,-0.93743896484375,-0.16351318359375,0.089202880859375
1772455912733585700,2.547585693359375,-0.92901611328125,-0.162628173828125,0.099151611328125
1772455912743603700,2.557603759765625,-0.928375244140625,-0.1641845703125,0.0958404541015625
1772455912753622500,2.56762255859375,-0.9293670654296875,-0.1746368408203125,0.0902099609375
1772455912763640600,2.577640625,-0.931427001953125,-0.1948699951171875,0.0869903564453125
1772455912773658600,2.58765869140625,-0.9405975341796875,-0.2191009521484375,0.07489013671875
1772455912783676700,2.5976767578125,-0.9536590576171875,-0.2406158447265625,0.05242919921875
1772455912793694500,2.607694580078125,-0.969757080078125,-0.251220703125,0.0304412841796875
1772455912803712300,2.617712158203125,-0.983551025390625,-0.248138427734375,0.0081634521484375
1772455912813730600,2.62773046875,-0.9918212890625,-0.2298126220703125,-0.00140380859375
1772455912823749600,2.63774951171875,-0.98712158203125,-0.1962738037109375,0.00457763671875
1772455912833767400,2.647767333984375,-0.97479248046875,-0.15289306640625,0.017242431640625
1772455912843785500,2.657785400390625,-0.9696502685546875,-0.1108551025390625,0.0348358154296875
1772455912853803500,2.667803466796875,-0.9690399169921875,-0.08294677734375,0.055084228515625
1772455912863821600,2.677821533203125,-0.971038818359375,-0.0712127685546875,0.07177734375
1772455912873839400,2.68783935546875,-0.9606781005859375,-0.0720977783203125,0.082275390625
1772455912883857400,2.697857421875,-0.9440460205078125,-0.084716796875,0.090576171875
1772455912893876200,2.707876220703125,-0.926239013671875,-0.099029541015625,0.0943450927734375
1772455912903894500,2.71789453125,-0.911712646484375,-0.1065216064453125,0.093353271484375
1772455912913912600,2.72791259765625,-0.899322509765625,-0.1109771728515625,0.0864715576171875
1772455912923930400,2.737930419921875,-0.890289306640625,-0.1141204833984375,0.0849609375
1772455912933948400,2.747948486328125,-0.885894775390625,-0.116455078125,0.0859375
1772455912943966500,2.757966552734375,-0.89447021484375,-0.1190338134765625,0.0906219482421875
1772455912953984500,2.767984619140625,-0.917694091796875,-0.1165771484375,0.103302001953125
1772455912964003300,2.77800341796875,-0.94696044921875,-0.107330322265625,0.1142425537109375
1772455912974021400,2.788021484375,-0.97406005859375,-0.10028076171875,0.12823486328125
1772455912984039400,2.798039306640625,-0.9920654296875,-0.10150146484375,0.144134521484375
1772455912994057500,2.808057373046875,-1.00579833984375,-0.1087188720703125,0.14410400390625
1772455913004075500,2.818075439453125,-1.0125579833984375,-0.1196136474609375,0.1281280517578125
1772455913014093300,2.82809326171875,-1.0065460205078125,-0.1339569091796875,0.113800048828125
1772455913024111600,2.838111572265625,-0.9922943115234375,-0.1472930908203125,0.1064300537109375
1772455913034130400,2.84813037109375,-0.976593017578125,-0.1627197265625,0.1079254150390625
1772455913044148500,2.8581484375,-0.9627685546875,-0.172393798828125,0.1162261962890625
1772455913054166300,2.868166259765625,-0.9534912109375,-0.1855926513671875,0.121917724609375
1772455913064184300,2.878184326171875,-0.954254150390625,-0.1970367431640625,0.1208953857421875
1772455913074202600,2.88820263671875,-0.9559478759765625,-0.2064361572265625,0.1134490966796875
1772455913084220400,2.898220458984375,-0.9553375244140625,-0.2165679931640625,0.101837158203125
1772455913094238500,2.908238525390625,-0.9521026611328125,-0.227996826171875,0.09197998046875
1772455913104257300,2.91825732421875,-0.93951416015625,-0.23931884765625,0.08697509765625
1772455913114275300,2.928275390625,-0.9310150146484375,-0.252532958984375,0.0822296142578125
1772455913124293400,2.93829345703125,-0.9337921142578125,-0.2586517333984375,0.0718536376953125
1772455913134311400,2.9483115234375,-0.944427490234375,-0.2588043212890625,0.0623931884765625
1772455913144329500,2.95832958984375,-0.95819091796875,-0.2554168701171875,0.0619659423828125
1772455913154347500,2.968347412109375,-0.9677734375,-0.25347900390625,0.070831298828125
1772455913164365600,2.978365478515625,-0.9700469970703125,-0.2518768310546875,0.0833282470703125
1772455913174383400,2.98838330078125,-0.97735595703125,-0.2633056640625,0.098480224609375
1772455913184402400,2.99840234375,-0.9832611083984375,-0.2733154296875,0.108154296875
1772455913194420200,3.008420166015625,-0.9840850830078125,-0.2852630615234375,0.1084747314453125
1772455913204438500,3.0184384765625,-0.984161376953125,-0.2893829345703125,0.09552001953125
1772455913214456300,3.028456298828125,-0.9890899658203125,-0.2971649169921875,0.07000732421875
1772455913224474400,3.038474365234375,-0.9868927001953125,-0.3072967529296875,0.053192138671875
1772455913234492400,3.048492431640625,-0.9787750244140625,-0.32049560546875,0.031280517578125
1772455913244510500,3.058510498046875,-0.966400146484375,-0.3329010009765625,0.0146942138671875
1772455913254529500,3.068529541015625,-0.971282958984375,-0.34710693359375,0.002044677734375
1772455913264547300,3.07854736328125,-0.9694061279296875,-0.306610107421875,-0.1117095947265625
1772455913274565400,3.0885654296875,-1.0241241455078125,-0.315277099609375,-0.0395660400390625
1772455913284583400,3.09858349609375,-1.0111846923828125,-0.3738555908203125,0.0467987060546875
1772455913294601500,3.1086015625,-0.9706573486328125,-0.34619140625,0.0585174560546875
1772455913304619300,3.118619384765625,-0.947174072265625,-0.3296661376953125,0.0684814453125
1772455913314637300,3.12863720703125,-0.9462890625,-0.3229522705078125,0.08868408203125
1772455913324656400,3.138656494140625,-0.9564666748046875,-0.3142242431640625,0.0948638916015625
1772455913334674400,3.14867431640625,-0.9686279296875,-0.304351806640625,0.0850982666015625
1772455913344692500,3.1586923828125,-0.981353759765625,-0.288818359375,0.061798095703125
1772455913354710300,3.168710205078125,-0.9958038330078125,-0.2711181640625,0.036956787109375
1772455913364728600,3.178728515625,-1.001678466796875,-0.2513275146484375,0.0153045654296875
1772455913374746400,3.188746337890625,-1.0047149658203125,-0.23321533203125,-0.0043792724609375
1772455913384764400,3.198764404296875,-1.020050048828125,-0.2307586669921875,-0.011993408203125
1772455913394783500,3.208783447265625,-1.0383453369140625,-0.232421875,0.00616455078125
1772455913404801300,3.21880126953125,-1.05950927734375,-0.22265625,0.02008056640625
1772455913414819600,3.228819580078125,-1.07562255859375,-0.1997222900390625,0.02386474609375
1772455913424837400,3.23883740234375,-1.07635498046875,-0.1794891357421875,0.0312042236328125
1772455913434855400,3.24885546875,-1.074432373046875,-0.1697845458984375,0.034423828125
1772455913444873200,3.258873291015625,-1.06854248046875,-0.16473388671875,0.0293731689453125
1772455913454891500,3.2688916015625,-1.056304931640625,-0.1528167724609375,0.01519775390625
1772455913464910600,3.27891064453125,-1.0330352783203125,-0.1490478515625,0.00518798828125
1772455913474928400,3.288928466796875,-1.00665283203125,-0.14996337890625,-0.001190185546875
1772455913484946400,3.298946533203125,-0.9853363037109375,-0.1563720703125,-0.003875732421875
1772455913494964500,3.308964599609375,-0.9713287353515625,-0.1595306396484375,-0.0137481689453125
1772455913504982500,3.318982421875,-0.9593658447265625,-0.1586761474609375,-0.0246734619140625
1772455913515000300,3.329000244140625,-0.94793701171875,-0.1530303955078125,-0.022003173828125
1772455913525018400,3.339018310546875,-0.9490203857421875,-0.152099609375,-0.006256103515625
1772455913535037400,3.349037353515625,-0.95806884765625,-0.1517181396484375,0.0036468505859375
1772455913545055500,3.359055419921875,-0.97381591796875,-0.1499481201171875,0.0091094970703125
1772455913555073500,3.369073486328125,-0.98486328125,-0.1470947265625,0.013824462890625
1772455913565091300,3.37909130859375,-0.9814910888671875,-0.14227294921875,0.019134521484375
1772455913575109400,3.389109375,-0.96209716796875,-0.1352081298828125,0.01727294921875
1772455913585127400,3.39912744140625,-0.9297027587890625,-0.1339569091796875,0.0026702880859375
1772455913595145500,3.4091455078125,-0.9080810546875,-0.1416473388671875,-0.023529052734375
1772455913605164500,3.41916455078125,-0.9051055908203125,-0.1518402099609375,-0.035125732421875
1772455913615182300,3.429182373046875,-0.9252166748046875,-0.1593017578125,-0.026031494140625
1772455913625200400,3.439200439453125,-0.9674835205078125,-0.1524505615234375,-0.0179290771484375
1772455913635218400,3.449218505859375,-1.0203399658203125,-0.1312713623046875,-0.0159454345703125
1772455913645236500,3.459236572265625,-1.0693511962890625,-0.1129150390625,-0.0184783935546875
1772455913655254300,3.469254150390625,-1.1050872802734375,-0.105377197265625,-0.01971435546875
1772455913665272600,3.4792724609375,-1.1248931884765625,-0.11505126953125,-0.0249481201171875
1772455913675290400,3.489290283203125,-1.1327667236328125,-0.1381378173828125,-0.043609619140625
1772455913685309400,3.499309326171875,-1.1203155517578125,-0.1652374267578125,-0.06890869140625
1772455913695327500,3.509327392578125,-1.0928955078125,-0.1932220458984375,-0.0917510986328125
1772455913705345300,3.51934521484375,-1.055755615234375,-0.2144775390625,-0.1020050048828125
1772455913715363600,3.529363525390625,-1.021392822265625,-0.2317047119140625,-0.0962982177734375
1772455913725381400,3.53938134765625,-0.9962310791015625,-0.2470550537109375,-0.0879058837890625
1772455913735399400,3.5493994140625,-0.9809417724609375,-0.251251220703125,-0.076507568359375
1772455913745417500,3.55941748046875,-0.983642578125,-0.24908447265625,-0.068084716796875
1772455913755436500,3.5694365234375,-0.9839630126953125,-0.2399139404296875,-0.0713043212890625
1772455913765454600,3.57945458984375,-0.9653472900390625,-0.2270965576171875,-0.07000732421875
1772455913775472400,3.589472412109375,-0.931793212890625,-0.22576904296875,-0.063262939453125
1772455913785490400,3.599490478515625,-0.893218994140625,-0.2348480224609375,-0.0599365234375
1772455913795508700,3.6095087890625,-0.857513427734375,-0.2491912841796875,-0.061248779296875
1772455913805526800,3.61952685546875,-0.8267059326171875,-0.2616729736328125,-0.064117431640625
1772455913815544800,3.629544921875,-0.79559326171875,-0.2675628662109375,-0.0565185546875
1772455913825564000,3.63956396484375,-0.7390289306640625,-0.2918548583984375,-0.0377655029296875
1772455913835581700,3.649581787109375,-0.692169189453125,-0.32159423828125,-0.0122833251953125
1772455913845600000,3.65960009765625,-0.7014007568359375,-0.3472900390625,0.0029754638671875
1772455913855617800,3.66961767578125,-0.7415618896484375,-0.3636474609375,-0.0298004150390625
1772455913865635800,3.6796357421875,-0.8069610595703125,-0.3466339111328125,-0.06817626953125
1772455913875653600,3.689653564453125,-0.8541107177734375,-0.32421875,-0.0807037353515625
1772455913885672000,3.699671875,-0.8768768310546875,-0.3105010986328125,-0.07501220703125
1772455913895691000,3.70969091796875,-0.8881378173828125,-0.30401611328125,-0.07281494140625
1772455913905708800,3.719708740234375,-0.8922882080078125,-0.3064727783203125,-0.0619964599609375
1772455913915726800,3.729726806640625,-0.8884735107421875,-0.29803466796875,-0.0487518310546875
1772455913925745000,3.739744873046875,-0.8885345458984375,-0.2834320068359375,-0.01422119140625
1772455913935763000,3.749762939453125,-0.9019927978515625,-0.2766265869140625,0.0235137939453125
1772455913945780700,3.75978076171875,-0.917877197265625,-0.2710723876953125,0.0411529541015625
1772455913955798800,3.769798828125,-0.935272216796875,-0.2695770263671875,0.0405120849609375
1772455913965817900,3.77981787109375,-0.952911376953125,-0.2772674560546875,0.0298004150390625
1772455913975836000,3.7898359375,-0.971221923828125,-0.2887725830078125,0.015869140625
1772455913985854000,3.79985400390625,-0.9815673828125,-0.293914794921875,0.002197265625
1772455913995871700,3.809871826171875,-0.97808837890625,-0.3003997802734375,-0.01165771484375
1772455914005889800,3.819889892578125,-0.960601806640625,-0.3091583251953125,-0.0229949951171875
1772455914015907800,3.829907958984375,-0.9388275146484375,-0.315338134765625,-0.0316314697265625
1772455914025926000,3.83992578125,-0.9113922119140625,-0.3159332275390625,-0.0291900634765625
1772455914035945000,3.849945068359375,-0.8872833251953125,-0.3177337646484375,-0.0233154296875
1772455914045962800,3.859962646484375,-0.870269775390625,-0.3238525390625,-0.025146484375
1772455914055980800,3.869980712890625,-0.859649658203125,-0.3245086669921875,-0.033905029296875
1772455914065998800,3.879998779296875,-0.8486785888671875,-0.315338134765625,-0.037841796875
1772455914076017000,3.890016845703125,-0.8318939208984375,-0.3028717041015625,-0.0306549072265625
1772455914086034700,3.90003466796875,-0.824554443359375,-0.298248291015625,-0.020355224609375
1772455914096053000,3.910052978515625,-0.8313751220703125,-0.295135498046875,-0.01043701171875
1772455914106070800,3.92007080078125,-0.8482666015625,-0.2951507568359375,-0.002532958984375
1772455914116089900,3.93008984375,-0.86920166015625,-0.29010009765625,0.0141143798828125
1772455914126108000,3.94010791015625,-0.91015625,-0.2793121337890625,0.021270751953125
1772455914136125700,3.950125732421875,-0.96881103515625,-0.2509307861328125,0.0303497314453125
1772455914146144000,3.96014404296875,-1.0351715087890625,-0.2108001708984375,0.0493011474609375
1772455914156161800,3.970161865234375,-1.0928192138671875,-0.165802001953125,0.0686187744140625
1772455914166179800,3.980179931640625,-1.1272735595703125,-0.1225433349609375,0.08660888671875
1772455914176198000,3.990197998046875,-1.130584716796875,-0.097320556640625,0.1092376708984375
1772455914186216700,4.000216796875,-1.107635498046875,-0.0842437744140625,0.1265106201171875
1772455914196235000,4.010235107421875,-1.0745086669921875,-0.0855255126953125,0.1414947509765625
1772455914206252800,4.020252685546875,-1.046783447265625,-0.101287841796875,0.156890869140625
1772455914216270800,4.030270751953125,-1.0446624755859375,-0.1246185302734375,0.177215576171875
1772455914226289000,4.040288818359375,-1.0728302001953125,-0.1451416015625,0.204071044921875
1772455914236307000,4.050306884765625,-1.1248931884765625,-0.1566925048828125,0.2099456787109375
1772455914246324700,4.06032470703125,-1.186859130859375,-0.152008056640625,0.1856536865234375
1772455914256343800,4.07034375,-1.235076904296875,-0.1374053955078125,0.1512298583984375
1772455914266361900,4.08036181640625,-1.241058349609375,-0.1280975341796875,0.1205902099609375
1772455914276380000,4.0903798828125,-1.195159912109375,-0.1212310791015625,0.0807647705078125
1772455914286398000,4.10039794921875,-1.1098175048828125,-0.1263885498046875,0.0454254150390625
1772455914296415700,4.110415771484375,-1.024017333984375,-0.14251708984375,0.0251007080078125
1772455914306433800,4.120433837890625,-0.9633026123046875,-0.1474609375,0.0204010009765625
1772455914316451800,4.130451904296875,-0.93194580078125,-0.134796142578125,0.0236968994140625
1772455914326471000,4.140470947265625,-0.9191436767578125,-0.1087799072265625,0.032928466796875
1772455914336489000,4.150489013671875,-0.9069671630859375,-0.0865020751953125,0.0550537109375
1772455914346506800,4.1605068359375,-0.900146484375,-0.075653076171875,0.08349609375
1772455914356525000,4.170525146484375,-0.9113922119140625,-0.0747528076171875,0.091156005859375
1772455914366542800,4.18054296875,-0.9342803955078125,-0.07586669921875,0.0800018310546875
1772455914376561000,4.190560791015625,-0.9646148681640625,-0.0782470703125,0.068878173828125
1772455914386578700,4.20057861328125,-0.9835662841796875,-0.073394775390625,0.0665435791015625
1772455914396597800,4.21059765625,-0.9843292236328125,-0.066375732421875,0.066741943359375
1772455914406615800,4.22061572265625,-0.968597412109375,-0.0625,0.083038330078125
1772455914416633900,4.2306337890625,-0.9455413818359375,-0.059814453125,0.1008453369140625
1772455914426652000,4.24065185546875,-0.9260711669921875,-0.0598907470703125,0.1101837158203125
1772455914436670000,4.250669921875,-0.917236328125,-0.0618743896484375,0.1214599609375
1772455914446688000,4.26068798828125,-0.918365478515625,-0.0678253173828125,0.12432861328125
1772455914456705800,4.270705810546875,-0.92584228515625,-0.0765228271484375,0.1137237548828125
1772455914466724900,4.280724853515625,-0.9385833740234375,-0.0888519287109375,0.094696044921875
1772455914476742700,4.29074267578125,-0.951995849609375,-0.101898193359375,0.07525634765625
1772455914486761000,4.300760986328125,-0.962249755859375,-0.1097869873046875,0.0670318603515625
1772455914496779000,4.310779052734375,-0.96673583984375,-0.1111907958984375,0.0737457275390625
1772455914506796800,4.320796875,-0.975067138671875,-0.106292724609375,0.0862579345703125
1772455914516814800,4.33081494140625,-0.979248046875,-0.1029205322265625,0.0918426513671875
1772455914526833000,4.3408330078125,-0.9817352294921875,-0.109375,0.09185791015625
1772455914536851000,4.350850830078125,-0.9792327880859375,-0.1201324462890625,0.086700439453125
1772455914546869800,4.360869873046875,-0.973358154296875,-0.1337738037109375,0.0831451416015625
1772455914556887800,4.3708876953125,-0.96746826171875,-0.142974853515625,0.075531005859375
1772455914566905900,4.38090576171875,-0.959747314453125,-0.1512603759765625,0.062103271484375
1772455914576924000,4.390923828125,-0.9571685791015625,-0.16156005859375,0.053955078125
1772455914586942000,4.40094189453125,-0.959136962890625,-0.16607666015625,0.050628662109375
1772455914596959700,4.410959716796875,-0.965545654296875,-0.1702728271484375,0.0423431396484375
1772455914606978000,4.42097802734375,-0.9595184326171875,-0.1685638427734375,0.0304412841796875
1772455914616996900,4.430996826171875,-0.9423065185546875,-0.16424560546875,0.03179931640625
1772455914627015000,4.441014892578125,-0.9232635498046875,-0.163726806640625,0.0438079833984375
1772455914637032700,4.45103271484375,-0.90325927734375,-0.161651611328125,0.0579071044921875
1772455914647050800,4.46105078125,-0.886505126953125,-0.1605377197265625,0.070831298828125
1772455914657068800,4.47106884765625,-0.880462646484375,-0.16644287109375,0.081207275390625
1772455914667086800,4.4810869140625,-0.8953704833984375,-0.1721649169921875,0.082427978515625
1772455914677105000,4.49110498046875,-0.92626953125,-0.180206298828125,0.0705108642578125
1772455914687123700,4.501123779296875,-0.958984375,-0.18634033203125,0.05059814453125
1772455914697141800,4.511141845703125,-0.9889984130859375,-0.19256591796875,0.03271484375
1772455914707159800,4.521159912109375,-1.00335693359375,-0.1967010498046875,0.0255584716796875
1772455914717177900,4.531177734375,-1.0019073486328125,-0.2067718505859375,0.029296875
1772455914727195600,4.541195556640625,-0.9925384521484375,-0.2166900634765625,0.0264892578125
1772455914737214000,4.5512138671875,-0.9857330322265625,-0.2342376708984375,0.012298583984375
1772455914747232000,4.56123193359375,-0.984283447265625,-0.25421142578125,-0.0008392333984375
1772455914757250800,4.571250732421875,-0.98529052734375,-0.26947021484375,-0.005706787109375
1772455914767268900,4.581268798828125,-0.9894561767578125,-0.276336669921875,-0.0012054443359375
1772455914777286700,4.59128662109375,-1.001434326171875,-0.270294189453125,0.012603759765625
1772455914787305000,4.601304931640625,-1.0210418701171875,-0.256317138671875,0.0293121337890625
1772455914797323500,4.611323486328125,-1.0370330810546875,-0.2396240234375,0.05145263671875
1772455914807341300,4.62134130859375,-1.039215087890625,-0.2223358154296875,0.0767059326171875
1772455914817359400,4.631359375,-1.02740478515625,-0.2071380615234375,0.098663330078125
1772455914827378400,4.64137841796875,-1.009185791015625,-0.19622802734375,0.1126251220703125
1772455914837396500,4.651396484375,-0.9986724853515625,-0.188385009765625,0.118408203125
1772455914847414500,4.66141455078125,-0.9901275634765625,-0.180450439453125,0.1115264892578125
1772455914857432300,4.671432373046875,-0.979949951171875,-0.1678314208984375,0.0919189453125
1772455914867450400,4.681450439453125,-0.9694976806640625,-0.1500396728515625,0.07366943359375
1772455914877468400,4.691468505859375,-0.9584808349609375,-0.135650634765625,0.0605010986328125
1772455914887486500,4.701486572265625,-0.9478607177734375,-0.1267547607421875,0.057708740234375
1772455914897504300,4.711504150390625,-0.9547882080078125,-0.118804931640625,0.06781005859375
1772455914907523300,4.7215234375,-0.97650146484375,-0.1042022705078125,0.0772552490234375
1772455914917541400,4.731541259765625,-1.0123291015625,-0.078369140625,0.08148193359375
1772455914927559400,4.741559326171875,-1.0633697509765625,-0.0578155517578125,0.0832672119140625
1772455914937577500,4.751577392578125,-1.107086181640625,-0.0325927734375,0.0865478515625
1772455914947595300,4.76159521484375,-1.133392333984375,-0.0083770751953125,0.09979248046875
1772455914957613600,4.771613525390625,-1.15380859375,-0.0034332275390625,0.1039886474609375
1772455914967631400,4.78163134765625,-1.1544342041015625,-0.0149993896484375,0.0879974365234375
1772455914977650400,4.791650390625,-1.147918701171875,-0.0316314697265625,0.06719970703125
1772455914987668500,4.80166845703125,-1.13348388671875,-0.0444488525390625,0.0583038330078125
1772455914997686300,4.811686279296875,-1.1180877685546875,-0.05047607421875,0.0547332763671875
1772455915007704600,4.82170458984375,-1.106231689453125,-0.047088623046875,0.0530242919921875
1772455915017722400,4.831722412109375,-1.1033935546875,-0.046966552734375,0.0444183349609375
1772455915027740400,4.841740478515625,-1.0996246337890625,-0.04669189453125,0.027130126953125
1772455915037758500,4.851758544921875,-1.0783843994140625,-0.046417236328125,0.017059326171875
1772455915047777500,4.861777587890625,-1.054168701171875,-0.0402374267578125,0.0251922607421875
1772455915057795600,4.871795654296875,-1.0339202880859375,-0.021942138671875,0.041900634765625
1772455915067813400,4.8818134765625,-1.033782958984375,-0.0019989013671875,0.0452117919921875
1772455915077831400,4.89183154296875,-1.0474395751953125,0.019561767578125,0.0399932861328125
1772455915087849500,4.901849365234375,-1.05303955078125,0.039703369140625,0.0400238037109375
1772455915097867500,4.911867431640625,-1.0522918701171875,0.0540008544921875,0.0554046630859375
1772455915107885300,4.92188525390625,-1.0506591796875,0.0621795654296875,0.0711212158203125
1772455915117904400,4.931904296875,-1.0487823486328125,0.066375732421875,0.0804290771484375
1772455915127922400,4.94192236328125,-1.0364837646484375,0.0671539306640625,0.08367919921875
1772455915137940500,4.9519404296875,-1.0279388427734375,0.0572509765625,0.080291748046875
1772455915147958500,4.96195849609375,-1.026458740234375,0.040069580078125,0.0753173828125
1772455915157976300,4.971976318359375,-1.0336761474609375,0.016326904296875,0.06414794921875
1772455915167994600,4.98199462890625,-1.0432586669921875,-0.01654052734375,0.0462188720703125
1772455915178012400,4.992012451171875,-1.0536041259765625,-0.0403289794921875,0.0267486572265625
1772455915188031500,5.002031494140625,-1.051971435546875,-0.054962158203125,0.005828857421875
1772455915198049500,5.012049560546875,-1.0364990234375,-0.0684661865234375,-0.008544921875
1772455915208067300,5.0220673828125,-1.01513671875,-0.0847930908203125,-0.0146026611328125
1772455915218085600,5.032085693359375,-0.985992431640625,-0.10040283203125,-0.0146636962890625
1772455915228103400,5.042103515625,-0.9590301513671875,-0.1067962646484375,-0.0040435791015625
1772455915238121500,5.05212158203125,-0.93902587890625,-0.10498046875,0.0064849853515625
1772455915248139300,5.06213916015625,-0.923919677734375,-0.09765625,0.0116729736328125
1772455915258157600,5.072157470703125,-0.9224090576171875,-0.09130859375,0.01300048828125
1772455915268176400,5.08217626953125,-0.92352294921875,-0.0799407958984375,0.015716552734375
1772455915278194400,5.0921943359375,-0.92742919921875,-0.07098388671875,0.0218353271484375
1772455915288212500,5.10221240234375,-0.927215576171875,-0.063507080078125,0.0208740234375
1772455915298230500,5.11223046875,-0.9332122802734375,-0.0655670166015625,0.0045928955078125
1772455915308248600,5.12224853515625,-0.9267120361328125,-0.0766448974609375,-0.0150146484375
1772455915318266400,5.132266357421875,-0.912750244140625,-0.0933837890625,-0.026519775390625
1772455915328284400,5.142284423828125,-0.8965606689453125,-0.1142425537109375,-0.029571533203125
1772455915338303200,5.15230322265625,-0.8831024169921875,-0.133819580078125,-0.029388427734375
1772455915348321500,5.162321533203125,-0.865478515625,-0.1500244140625,-0.0194854736328125
1772455915358339600,5.172339599609375,-0.8439178466796875,-0.1635284423828125,-0.002899169921875
1772455915368357400,5.182357421875,-0.827362060546875,-0.1738433837890625,0.0106964111328125
1772455915378375400,5.19237548828125,-0.8093719482421875,-0.17584228515625,0.0262603759765625
1772455915388393500,5.2023935546875,-0.8027191162109375,-0.1716461181640625,0.0440216064453125
1772455915398411500,5.21241162109375,-0.81121826171875,-0.1700439453125,0.061126708984375
1772455915408430300,5.222430419921875,-0.8307952880859375,-0.1694183349609375,0.0747222900390625
1772455915418448400,5.232448486328125,-0.854736328125,-0.1702880859375,0.082977294921875
1772455915428466400,5.242466552734375,-0.8836517333984375,-0.1769256591796875,0.07989501953125
1772455915438484500,5.252484375,-0.914794921875,-0.1887664794921875,0.062103271484375
1772455915448502500,5.26250244140625,-0.9428253173828125,-0.1963043212890625,0.0469970703125
1772455915458520300,5.272520263671875,-0.9646759033203125,-0.200103759765625,0.033599853515625
1772455915468538600,5.28253857421875,-0.9822235107421875,-0.1973876953125,0.0251922607421875
1772455915478556400,5.292556396484375,-0.9894561767578125,-0.190765380859375,0.018310546875
1772455915488575500,5.302575439453125,-0.9928131103515625,-0.1884613037109375,0.015411376953125
1772455915498593300,5.31259326171875,-0.9958038330078125,-0.1893768310546875,0.0091705322265625
1772455915508611300,5.322611328125,-1.013519287109375,-0.190887451171875,-0.006103515625
1772455915518629400,5.33262939453125,-1.03509521484375,-0.1853790283203125,-0.0232086181640625
1772455915528647400,5.3426474609375,-1.0609588623046875,-0.172821044921875,-0.0335235595703125
1772455915538665500,5.35266552734375,-1.0894622802734375,-0.1548614501953125,-0.0323333740234375
1772455915548683500,5.36268359375,-1.12103271484375,-0.140838623046875,-0.0262451171875
1772455915558702600,5.37270263671875,-1.1515045166015625,-0.119140625,-0.0296173095703125
1772455915568720400,5.382720458984375,-1.16790771484375,-0.1060028076171875,-0.0342559814453125
1772455915578738400,5.392738525390625,-1.1727294921875,-0.0936279296875,-0.038726806640625
1772455915588756200,5.402756103515625,-1.17791748046875,-0.0973663330078125,-0.0415191650390625
1772455915598774500,5.4127744140625,-1.181396484375,-0.108978271484375,-0.0419158935546875
1772455915608792600,5.42279248046875,-1.179901123046875,-0.12603759765625,-0.0418243408203125
1772455915618810400,5.432810302734375,-1.169952392578125,-0.13861083984375,-0.0441436767578125
1772455915628829400,5.442829345703125,-1.1506805419921875,-0.1488800048828125,-0.054351806640625
1772455915638847200,5.45284716796875,-1.13330078125,-0.14935302734375,-0.0635986328125
1772455915648865500,5.462865478515625,-1.1142730712890625,-0.1345977783203125,-0.062042236328125
1772455915658883300,5.47288330078125,-1.0952606201171875,-0.1092987060546875,-0.0423431396484375
1772455915668901400,5.4829013671875,-1.0850067138671875,-0.0854949951171875,-0.0095672607421875
1772455915678919400,5.49291943359375,-1.084930419921875,-0.063507080078125,0.01885986328125
1772455915688937500,5.5029375,-1.0907745361328125,-0.0457763671875,0.0351409912109375
1772455915698956500,5.51295654296875,-1.0934295654296875,-0.0317230224609375,0.0384674072265625
1772455915708974300,5.522974365234375,-1.09100341796875,-0.02960205078125,0.041351318359375
1772455915718992400,5.532992431640625,-1.0753173828125,-0.0311431884765625,0.0388031005859375
1772455915729010400,5.543010498046875,-1.0420989990234375,-0.0361328125,0.0357818603515625
1772455915739028500,5.553028564453125,-1.0146636962890625,-0.0466461181640625,0.04248046875
1772455915749046300,5.56304638671875,-1.01116943359375,-0.0497589111328125,0.0395050048828125
1772455915759064300,5.573064208984375,-1.0174102783203125,-0.0302581787109375,0.014739990234375
1772455915769082600,5.58308251953125,-1.004241943359375,-0.0140533447265625,-0.0117645263671875
1772455915779101400,5.593101318359375,-0.9734954833984375,-0.0133056640625,-0.023162841796875
1772455915789119500,5.603119384765625,-0.926483154296875,-0.0134429931640625,-0.027099609375
1772455915799136300,5.61313623046875,-0.87933349609375,-0.00152587890625,-0.0192108154296875
1772455915809154300,5.623154296875,-0.8521270751953125,0.0197296142578125,-0.0012969970703125
1772455915819172000,5.633172119140625,-0.852020263671875,0.0453033447265625,0.019989013671875
1772455915829190100,5.643190185546875,-0.8630828857421875,0.0711517333984375,0.043121337890625
1772455915839208200,5.653208251953125,-0.871612548828125,0.092803955078125,0.06182861328125
1772455915849227300,5.663227294921875,-0.873077392578125,0.1083526611328125,0.07281494140625
1772455915859245300,5.673245361328125,-0.86883544921875,0.1159210205078125,0.084747314453125
1772455915869263000,5.68326318359375,-0.85302734375,0.1221466064453125,0.0959014892578125
1772455915879281400,5.693281494140625,-0.8396759033203125,0.1185150146484375,0.1103973388671875
1772455915889299200,5.70329931640625,-0.8405303955078125,0.1055908203125,0.128692626953125
1772455915899317200,5.713317138671875,-0.85601806640625,0.095367431640625,0.142059326171875
1772455915909335000,5.7233349609375,-0.8876495361328125,0.07720947265625,0.1333770751953125
1772455915919354000,5.73335400390625,-0.935272216796875,0.05645751953125,0.0982208251953125
1772455915929372400,5.743372314453125,-0.980194091796875,0.0380859375,0.0561370849609375
1772455915939390200,5.75339013671875,-1.01385498046875,0.0124664306640625,0.021331787109375
1772455915949408300,5.763408203125,-1.0238494873046875,-0.01947021484375,-0.0014801025390625
1772455915959426000,5.773426025390625,-1.0116424560546875,-0.051361083984375,-0.005096435546875
1772455915969444400,5.7834443359375,-0.981109619140625,-0.0731658935546875,0.0043792724609375
1772455915979462100,5.793462158203125,-0.9488677978515625,-0.090362548828125,0.023834228515625
1772455915989481200,5.803481201171875,-0.9219512939453125,-0.1080322265625,0.035247802734375
1772455915999499300,5.813499267578125,-0.906005859375,-0.1325531005859375,0.05364990234375
1772455916009517300,5.823517333984375,-0.9010772705078125,-0.1593475341796875,0.076019287109375
1772455916019535400,5.833535400390625,-0.904327392578125,-0.1829833984375,0.09539794921875
1772455916029553200,5.84355322265625,-0.91217041015625,-0.2013092041015625,0.1060943603515625
1772455916039571200,5.8535712890625,-0.922821044921875,-0.2093505859375,0.1177825927734375
1772455916049589200,5.86358935546875,-0.930999755859375,-0.216217041015625,0.1204833984375
1772455916059608300,5.8736083984375,-0.9360809326171875,-0.2203521728515625,0.120819091796875
1772455916069626400,5.88362646484375,-0.938385009765625,-0.22283935546875,0.115203857421875
1772455916079644200,5.89364404296875,-0.939544677734375,-0.2206878662109375,0.1024322509765625
1772455916089662200,5.903662109375,-0.9459228515625,-0.2194976806640625,0.0853118896484375
1772455916099680300,5.91368017578125,-0.9514312744140625,-0.2174530029296875,0.06964111328125
1772455916109698300,5.9236982421875,-0.957000732421875,-0.2144012451171875,0.0533447265625
1772455916119716000,5.933716064453125,-0.957916259765625,-0.2085723876953125,0.0347900390625
1772455916129734400,5.943734375,-0.9456939697265625,-0.1981201171875,0.021759033203125
1772455916139753200,5.953753173828125,-0.9302825927734375,-0.189453125,0.021087646484375
1772455916149771300,5.963771240234375,-0.9200286865234375,-0.1816253662109375,0.0341796875
1772455916159789300,5.973789306640625,-0.9158172607421875,-0.1726226806640625,0.0512237548828125
1772455916169807000,5.98380712890625,-0.9249725341796875,-0.170562744140625,0.059417724609375
1772455916179825400,5.993825439453125,-0.94439697265625,-0.1733551025390625,0.0595245361328125
1772455916189843200,6.00384326171875,-0.9660491943359375,-0.1766510009765625,0.0500335693359375
1772455916199861200,6.013861328125,-0.9759674072265625,-0.1863861083984375,0.03704833984375
1772455916209880000,6.023880126953125,-0.981536865234375,-0.201934814453125,0.023712158203125
1772455916219898000,6.033898193359375,-0.9887542724609375,-0.2178497314453125,0.00103759765625
1772455916229916400,6.04391650390625,-0.988555908203125,-0.230712890625,-0.0116729736328125
1772455916239934200,6.053934326171875,-0.97589111328125,-0.237640380859375,-0.013427734375
1772455916249952300,6.0639521484375,-0.9632720947265625,-0.24212646484375,-0.00262451171875
1772455916259970300,6.07397021484375,-0.95648193359375,-0.2429962158203125,0.0085601806640625
1772455916269988400,6.08398828125,-0.958770751953125,-0.237030029296875,0.017364501953125
1772455916280006100,6.094006103515625,-0.97235107421875,-0.231170654296875,0.03466796875
1772455916290025200,6.104025146484375,-1.0007476806640625,-0.228057861328125,0.0522918701171875
1772455916300043000,6.11404296875,-1.03961181640625,-0.2219696044921875,0.0623626708984375
1772455916310061300,6.124061279296875,-1.075347900390625,-0.21295166015625,0.059326171875
1772455916320079400,6.134079345703125,-1.0939788818359375,-0.2038421630859375,0.042266845703125
1772455916330097200,6.14409716796875,-1.0965728759765625,-0.2059173583984375,0.0147705078125
1772455916340115200,6.154115234375,-1.0901336669921875,-0.219818115234375,-0.0138702392578125
1772455916350133200,6.16413330078125,-1.0931549072265625,-0.2394256591796875,-0.03125
1772455916360152300,6.17415234375,-1.1089324951171875,-0.25238037109375,-0.029632568359375
1772455916370170000,6.184170166015625,-1.125823974609375,-0.2472686767578125,-0.020477294921875
1772455916380188200,6.194188232421875,-1.1347808837890625,-0.2323760986328125,-0.0081634521484375
1772455916390206500,6.20420654296875,-1.1423492431640625,-0.2116241455078125,0.0029449462890625
1772455916400224300,6.214224365234375,-1.1468353271484375,-0.1815643310546875,0.0066375732421875
1772455916410242300,6.2242421875,-1.153961181640625,-0.143707275390625,0.00634765625
1772455916420260000,6.234260009765625,-1.1549530029296875,-0.102325439453125,0.002197265625
1772455916430279200,6.244279052734375,-1.1523284912109375,-0.0572662353515625,-0.0129241943359375
1772455916440297200,6.254297119140625,-1.14569091796875,-0.0232086181640625,-0.0325164794921875
1772455916450315300,6.264315185546875,-1.130950927734375,-0.003265380859375,-0.04791259765625
1772455916460333000,6.2743330078125,-1.11517333984375,0.0167083740234375,-0.0461578369140625
1772455916470351000,6.28435107421875,-1.105865478515625,0.0376739501953125,-0.0251617431640625
1772455916480369400,6.294369384765625,-1.105682373046875,0.0681610107421875,-0.0074005126953125
1772455916490387200,6.30438720703125,-1.109375,0.1069183349609375,0.0037384033203125
1772455916500405200,6.3144052734375,-1.0975799560546875,0.1495513916015625,0.01495361328125
1772455916510424000,6.324424072265625,-1.0707550048828125,0.1809539794921875,0.035125732421875
1772455916520442400,6.3344423828125,-1.04022216796875,0.1908416748046875,0.0589447021484375
1772455916530460200,6.344460205078125,-1.01995849609375,0.1855926513671875,0.073974609375
1772455916540478200,6.354478271484375,-1.0149078369140625,0.1688690185546875,0.082122802734375
1772455916550496300,6.364496337890625,-1.0327301025390625,0.1394805908203125,0.0996551513671875
1772455916560514300,6.374514404296875,-1.06622314453125,0.1018524169921875,0.1145172119140625
1772455916570532400,6.384532470703125,-1.0918121337890625,0.0526275634765625,0.101715087890625
1772455916580551200,6.39455126953125,-1.1032562255859375,-0.0065765380859375,0.060516357421875
1772455916590569200,6.4045693359375,-1.096099853515625,-0.0667266845703125,0.0087738037109375
1772455916600587000,6.4145869140625,-1.06439208984375,-0.118377685546875,-0.0379638671875
1772455916610605300,6.424605224609375,-1.0238800048828125,-0.1586151123046875,-0.0721282958984375
1772455916620623000,6.434623046875,-0.98614501953125,-0.1861572265625,-0.091522216796875
1772455916630641200,6.44464111328125,-0.965484619140625,-0.2012939453125,-0.0984649658203125
1772455916640659500,6.454659423828125,-0.9673614501953125,-0.213836669921875,-0.0987091064453125
1772455916650678300,6.46467822265625,-0.97845458984375,-0.21710205078125,-0.098968505859375
1772455916660696300,6.4746962890625,-0.9888916015625,-0.2075958251953125,-0.093292236328125
1772455916670714000,6.484714111328125,-0.9924774169921875,-0.19549560546875,-0.0852203369140625
1772455916680732200,6.494732177734375,-0.990692138671875,-0.1797332763671875,-0.068511962890625
1772455916690750200,6.504750244140625,-0.981414794921875,-0.160552978515625,-0.0465545654296875
1772455916700768300,6.514768310546875,-0.96136474609375,-0.143829345703125,-0.026275634765625
1772455916710786000,6.5247861328125,-0.941619873046875,-0.1334686279296875,-0.011383056640625
1772455916720804000,6.53480419921875,-0.91943359375,-0.1275177001953125,0.00335693359375
1772455916730823200,6.5448232421875,-0.893646240234375,-0.128021240234375,0.0049591064453125
1772455916740841200,6.55484130859375,-0.871978759765625,-0.1291656494140625,0.00482177734375
1772455916750859300,6.564859375,-0.8544769287109375,-0.13580322265625,0.0089111328125
1772455916760877000,6.574876953125,-0.84893798828125,-0.13983154296875,0.01849365234375
1772455916770895400,6.584895263671875,-0.8490753173828125,-0.1478271484375,0.0187225341796875
1772455916780913200,6.5949130859375,-0.85711669921875,-0.15582275390625,0.0138092041015625
1772455916790931200,6.60493115234375,-0.866485595703125,-0.1633758544921875,0.009033203125
1772455916800951000,6.614950927734375,-0.87896728515625,-0.17059326171875,0.005218505859375
1772455916810968800,6.62496875,-0.882904052734375,-0.1788787841796875,0.0021820068359375
1772455916820987000,6.63498681640625,-0.876220703125,-0.186676025390625,-0.0002593994140625
1772455916831005000,6.6450048828125,-0.859771728515625,-0.1967620849609375,-0.0018768310546875
1772455916841023000,6.65502294921875,-0.8414306640625,-0.2051849365234375,-0.0052490234375
1772455916851040800,6.665040771484375,-0.8249359130859375,-0.2139739990234375,-0.0066375732421875
1772455916861059000,6.67505908203125,-0.811492919921875,-0.2227935791015625,-0.0093536376953125
1772455916871076900,6.685076904296875,-0.7948150634765625,-0.232421875,-0.0101470947265625
1772455916881096000,6.695095947265625,-0.7750244140625,-0.2397613525390625,-0.0031585693359375
1772455916891114000,6.705114013671875,-0.7607269287109375,-0.2450408935546875,0.0107269287109375
1772455916901131800,6.7151318359375,-0.759246826171875,-0.2484130859375,0.027191162109375
1772455916911150000,6.725150146484375,-0.7711181640625,-0.2509613037109375,0.0381011962890625
1772455916921168000,6.73516796875,-0.7891387939453125,-0.2584075927734375,0.0431060791015625
1772455916931186000,6.74518603515625,-0.8021392822265625,-0.266571044921875,0.047607421875
1772455916941203700,6.75520361328125,-0.8070526123046875,-0.277069091796875,0.0455322265625
1772455916951222800,6.765222900390625,-0.8132171630859375,-0.2928619384765625,0.0323028564453125
1772455916961241000,6.775240966796875,-0.8242645263671875,-0.30377197265625,0.0106964111328125
1772455916971259000,6.7852587890625,-0.8336639404296875,-0.313201904296875,-0.0115966796875
1772455916981277000,6.79527685546875,-0.852325439453125,-0.31982421875,-0.025909423828125
1772455916991295000,6.805294921875,-0.8769989013671875,-0.3176727294921875,-0.0347442626953125
1772455917001313000,6.81531298828125,-0.9182891845703125,-0.3152313232421875,-0.034423828125
1772455917011330800,6.825330810546875,-0.980194091796875,-0.311859130859375,-0.0257720947265625
1772455917021350000,6.835349853515625,-1.0579986572265625,-0.29779052734375,-0.028900146484375
1772455917031368000,6.845367919921875,-1.135162353515625,-0.27777099609375,-0.0259857177734375
1772455917041386000,6.855385986328125,-1.203399658203125,-0.260406494140625,-0.0202484130859375
1772455917051404000,6.865404052734375,-1.2452850341796875,-0.243560791015625,-0.0165863037109375
1772455917061421800,6.875421875,-1.2604522705078125,-0.2345123291015625,-0.022735595703125
1772455917071440000,6.88543994140625,-1.2596893310546875,-0.2539215087890625,-0.03143310546875
1772455917081458000,6.8954580078125,-1.2431640625,-0.294219970703125,-0.0511474609375
1772455917091477000,6.90547705078125,-1.219970703125,-0.328155517578125,-0.0738525390625
1772455917101495000,6.9154951171875,-1.1974029541015625,-0.353546142578125,-0.1131591796875
1772455917111512800,6.925512939453125,-1.1717681884765625,-0.3585052490234375,-0.154327392578125
1772455917121531100,6.93553125,-1.1378021240234375,-0.3454437255859375,-0.17816162109375
1772455917131549000,6.945548828125,-1.1036224365234375,-0.31878662109375,-0.178436279296875
1772455917141567000,6.95556689453125,-1.07086181640625,-0.2762603759765625,-0.165283203125
1772455917151584800,6.965584716796875,-1.051177978515625,-0.2308502197265625,-0.135162353515625
1772455917161603000,6.97560302734375,-1.0439453125,-0.1893310546875,-0.10577392578125
1772455917171622100,6.9856220703125,-1.03790283203125,-0.1501312255859375,-0.0844879150390625
1772455917181640000,6.995639892578125,-1.0330657958984375,-0.1239776611328125,-0.0604705810546875
1772455917191658000,7.005657958984375,-1.0282440185546875,-0.1117401123046875,-0.04046630859375
1772455917201675800,7.01567578125,-1.0288238525390625,-0.1153411865234375,-0.0387115478515625
1772455917211694000,7.025694091796875,-1.0241546630859375,-0.1242218017578125,-0.04937744140625
1772455917221712000,7.0357119140625,-1.00201416015625,-0.1286163330078125,-0.0574493408203125
1772455917231730000,7.04572998046875,-0.9619903564453125,-0.1278228759765625,-0.048583984375
1772455917241749000,7.0557490234375,-0.915496826171875,-0.1245880126953125,-0.028533935546875
1772455917251767000,7.06576708984375,-0.86395263671875,-0.119903564453125,-0.0085601806640625
1772455917261785000,7.07578515625,-0.81854248046875,-0.118988037109375,0.0052337646484375
1772455917271803000,7.085802978515625,-0.793548583984375,-0.1151123046875,0.0134429931640625
1772455917281821000,7.095821044921875,-0.79205322265625,-0.098846435546875,0.010467529296875
1772455917291839000,7.1058388671875,-0.817718505859375,-0.082122802734375,0.007293701171875
1772455917301857000,7.11585693359375,-0.865814208984375,-0.0615692138671875,-0.0001068115234375
1772455917311874800,7.125874755859375,-0.91815185546875,-0.041595458984375,-0.0059051513671875
1772455917321894000,7.135893798828125,-0.959747314453125,-0.023651123046875,-0.0029754638671875
1772455917331912000,7.145911865234375,-0.9943695068359375,-0.006622314453125,0.0116729736328125
1772455917341930000,7.155929931640625,-1.0211181640625,0.0074310302734375,0.0260009765625
1772455917351948000,7.165947998046875,-1.0339508056640625,0.0242462158203125,0.03729248046875
1772455917361965800,7.1759658203125,-1.037200927734375,0.0324554443359375,0.0514373779296875
1772455917371984100,7.185984130859375,-1.0375518798828125,0.03021240234375,0.0501708984375
1772455917382002000,7.196001953125,-1.033599853515625,0.0250244140625,0.0322723388671875
1772455917392021000,7.20602099609375,-1.0170745849609375,0.008636474609375,0.0049591064453125
1772455917402038800,7.216038818359375,-0.980987548828125,-0.0169525146484375,-0.01824951171875
1772455917412056800,7.226056884765625,-0.932708740234375,-0.0438385009765625,-0.0250396728515625
1772455917422075100,7.2360751953125,-0.87786865234375,-0.066680908203125,-0.0196380615234375
1772455917432093000,7.246093017578125,-0.8259429931640625,-0.0889129638671875,0.001190185546875
1772455917442111000,7.256111083984375,-0.791015625,-0.1119232177734375,0.029205322265625
1772455917452128800,7.266128662109375,-0.7757110595703125,-0.1376190185546875,0.05224609375
1772455917462147000,7.27614697265625,-0.7928924560546875,-0.1609344482421875,0.0580902099609375
1772455917472166000,7.286165771484375,-0.8294830322265625,-0.177581787109375,0.0428619384765625
1772455917482184000,7.296183837890625,-0.869720458984375,-0.189208984375,0.022064208984375
1772455917492202000,7.306201904296875,-0.895050048828125,-0.2008819580078125,0.010223388671875
1772455917502220000,7.316219970703125,-0.9110870361328125,-0.2128143310546875,0.0058746337890625
1772455917512238000,7.326238037109375,-0.926239013671875,-0.221832275390625,0.0036773681640625
1772455917522256000,7.336255859375,-0.940216064453125,-0.2199554443359375,0.008209228515625
1772455917532274000,7.34627392578125,-0.9563446044921875,-0.211822509765625,0.01806640625
1772455917542292700,7.356292724609375,-0.9777069091796875,-0.205169677734375,0.0271148681640625
1772455917552311000,7.36631103515625,-1.0045166015625,-0.1999664306640625,0.0377960205078125
1772455917562328800,7.376328857421875,-1.0335540771484375,-0.190093994140625,0.04803466796875
1772455917572347000,7.386346923828125,-1.05999755859375,-0.186309814453125,0.0583953857421875
1772455917582365000,7.396364990234375,-1.0827789306640625,-0.1850738525390625,0.0609893798828125
1772455917592383000,7.406383056640625,-1.095947265625,-0.189056396484375,0.0572357177734375
1772455917602401000,7.416401123046875,-1.0969085693359375,-0.1983489990234375,0.0460205078125
1772455917612418800,7.426418701171875,-1.0904083251953125,-0.2092132568359375,0.041015625
1772455917622438000,7.43643798828125,-1.0736083984375,-0.2258453369140625,0.0378875732421875
1772455917632456000,7.4464560546875,-1.0555267333984375,-0.235321044921875,0.025115966796875
1772455917642474000,7.456473876953125,-1.0343780517578125,-0.2355194091796875,0.0152587890625
1772455917652492000,7.466491943359375,-1.01141357421875,-0.2386016845703125,0.01806640625
1772455917662509800,7.476509765625,-0.9962615966796875,-0.2393798828125,0.0178375244140625
1772455917672528100,7.486528076171875,-0.9846038818359375,-0.2382049560546875,0.013641357421875
1772455917682546000,7.4965458984375,-0.976348876953125,-0.2371826171875,0.008697509765625
1772455917692565000,7.50656494140625,-0.97967529296875,-0.2380828857421875,0.005584716796875
1772455917702582800,7.516582763671875,-0.9824066162109375,-0.2328948974609375,0.006561279296875
1772455917712600800,7.526600830078125,-0.9863739013671875,-0.227874755859375,0.009918212890625
1772455917722619000,7.536618896484375,-0.9927978515625,-0.221160888671875,0.015289306640625
1772455917732637000,7.546636962890625,-0.9971466064453125,-0.2166290283203125,0.0163116455078125
1772455917742655000,7.556655029296875,-0.9912261962890625,-0.215789794921875,0.0164794921875
1772455917752673000,7.566673095703125,-0.97259521484375,-0.216033935546875,0.0206146240234375
1772455917762692000,7.576692138671875,-0.950897216796875,-0.2166900634765625,0.00653076171875
1772455917772710000,7.5867099609375,-0.9256591796875,-0.2200927734375,-0.00537109375
1772455917782728000,7.59672802734375,-0.9054107666015625,-0.2207489013671875,-0.0258331298828125
1772455917792745700,7.606745849609375,-0.8929901123046875,-0.21783447265625,-0.05328369140625
1772455917802763800,7.616763671875,-0.8719940185546875,-0.2168121337890625,-0.06890869140625
1772455917812781800,7.62678173828125,-0.8661346435546875,-0.223297119140625,-0.0590362548828125
1772455917822800000,7.6367998046875,-0.8996734619140625,-0.2307586669921875,-0.031097412109375
1772455917832818000,7.64681787109375,-0.971832275390625,-0.2231292724609375,-0.0012969970703125
1772455917842836700,7.656836669921875,-1.0664215087890625,-0.198883056640625,0.0213775634765625
1772455917852854800,7.666854736328125,-1.1581878662109375,-0.16705322265625,0.04132080078125
1772455917862872800,7.676872802734375,-1.233642578125,-0.140960693359375,0.0750885009765625
1772455917872890600,7.686890625,-1.3018798828125,-0.1153106689453125,0.0692138671875
1772455917882909000,7.696908935546875,-1.3533935546875,-0.0974884033203125,0.0269775390625
1772455917892926700,7.7069267578125,-1.3588104248046875,-0.1019439697265625,-0.028167724609375
1772455917902944800,7.71694482421875,-1.312103271484375,-0.1186370849609375,-0.0661163330078125
1772455917912963800,7.7269638671875,-1.2372589111328125,-0.13958740234375,-0.0740509033203125
1772455917922981600,7.736981689453125,-1.160247802734375,-0.1550445556640625,-0.0738372802734375
1772455917932999000,7.7469990234375,-1.097015380859375,-0.150787353515625,-0.0727691650390625
1772455917943016700,7.7570166015625,-1.05218505859375,-0.133209228515625,-0.0764923095703125
1772455917953034800,7.76703466796875,-1.0189361572265625,-0.1002044677734375,-0.0847625732421875
1772455917963052800,7.777052734375,-0.9906158447265625,-0.0663604736328125,-0.099365234375
1772455917973072000,7.78707177734375,-0.961029052734375,-0.0418243408203125,-0.1141510009765625
1772455917983090000,7.79708984375,-0.92706298828125,-0.0242919921875,-0.1189422607421875
1772455917993107700,7.807107666015625,-0.889068603515625,-0.012420654296875,-0.1207427978515625
1772455918003126000,7.8171259765625,-0.85125732421875,-0.0163421630859375,-0.10235595703125
1772455918013143800,7.827143798828125,-0.8238677978515625,-0.0324554443359375,-0.0811004638671875
1772455918023161900,7.837161865234375,-0.8178558349609375,-0.0608673095703125,-0.0596771240234375
1772455918033179600,7.8471796875,-0.8301239013671875,-0.1029510498046875,-0.037628173828125
1772455918043198000,7.857197998046875,-0.8557891845703125,-0.1494903564453125,-0.021881103515625
1772455918053216800,7.867216796875,-0.8965911865234375,-0.18475341796875,-0.005767822265625
1772455918063234800,7.87723486328125,-0.9711456298828125,-0.2130584716796875,0.002593994140625
1772455918073252900,7.8872529296875,-1.0731048583984375,-0.2119598388671875,-0.0074005126953125
1772455918083271000,7.89727099609375,-1.169708251953125,-0.190032958984375,-0.032379150390625
1772455918093289000,7.9072890625,-1.2310943603515625,-0.168304443359375,-0.055206298828125
1772455918103306800,7.917306640625,-1.252838134765625,-0.15045166015625,-0.0699462890625
1772455918113324800,7.92732470703125,-1.2465667724609375,-0.1435394287109375,-0.0967254638671875
1772455918123343600,7.937343505859375,-1.2112274169921875,-0.1479949951171875,-0.1313629150390625
1772455918133362000,7.94736181640625,-1.150146484375,-0.156463623046875,-0.155548095703125
1772455918143379700,7.957379638671875,-1.07794189453125,-0.168731689453125,-0.165374755859375
1772455918153397800,7.967397705078125,-0.995452880859375,-0.186065673828125,-0.155548095703125
1772455918163415800,7.977415771484375,-0.9176177978515625,-0.1861419677734375,-0.1328582763671875
1772455918173433900,7.987433837890625,-0.8440093994140625,-0.1757965087890625,-0.1063995361328125
1772455918183452000,7.997451904296875,-0.7730712890625,-0.1672515869140625,-0.080474853515625
1772455918193469700,8.0074697265625,-0.720947265625,-0.1600494384765625,-0.0517425537109375
1772455918203488800,8.01748876953125,-0.6967926025390625,-0.16461181640625,-0.02069091796875
1772455918213506800,8.0275068359375,-0.70062255859375,-0.169830322265625,-0.0028076171875
1772455918223524900,8.03752490234375,-0.7202606201171875,-0.172821044921875,-0.006134033203125
1772455918233543000,8.04754296875,-0.742828369140625,-0.1853485107421875,-0.0217132568359375
1772455918243560700,8.057560791015625,-0.762664794921875,-0.2011566162109375,-0.0370025634765625
1772455918253579000,8.0675791015625,-0.7768096923828125,-0.2187347412109375,-0.04840087890625
1772455918263596800,8.0775966796875,-0.780548095703125,-0.233154296875,-0.060791015625
1772455918273616000,8.087615966796875,-0.778076171875,-0.246124267578125,-0.0637359619140625
1772455918283633700,8.097633544921875,-0.775054931640625,-0.2573699951171875,-0.0575408935546875
1772455918293652700,8.10765283203125,-0.7798919677734375,-0.2641143798828125,-0.05224609375
1772455918303670800,8.1176708984375,-0.7947998046875,-0.2663726806640625,-0.0542755126953125
1772455918313688800,8.127688720703125,-0.8188323974609375,-0.2700347900390625,-0.065521240234375
1772455918323707000,8.137706787109375,-0.851104736328125,-0.2808380126953125,-0.0835113525390625
1772455918333724700,8.147724609375,-0.8859405517578125,-0.2910003662109375,-0.1074676513671875
1772455918343742700,8.15774267578125,-0.907745361328125,-0.2948760986328125,-0.1259002685546875
1772455918353760800,8.1677607421875,-0.918365478515625,-0.2995452880859375,-0.1396636962890625
1772455918363779800,8.17777978515625,-0.927734375,-0.301422119140625,-0.1432647705078125
1772455918373798000,8.1877978515625,-0.9371490478515625,-0.2985992431640625,-0.1322479248046875
1772455918383815700,8.197815673828124,-0.941070556640625,-0.2964019775390625,-0.110870361328125
1772455918393834000,8.207833984375,-0.940155029296875,-0.291046142578125,-0.090545654296875
1772455918403851800,8.217851806640626,-0.941986083984375,-0.2873382568359375,-0.074432373046875
1772455918413869800,8.227869873046876,-0.950286865234375,-0.279388427734375,-0.05755615234375
1772455918423887600,8.2378876953125,-0.9680328369140625,-0.272003173828125,-0.045684814453125
1772455918433906000,8.247906005859376,-0.9922943115234375,-0.264739990234375,-0.0374603271484375
1772455918443925000,8.257925048828126,-1.0173797607421875,-0.258636474609375,-0.033050537109375
1772455918453942800,8.26794287109375,-1.0362396240234375,-0.254058837890625,-0.02178955078125
1772455918463960800,8.2779609375,-1.058258056640625,-0.2493438720703125,-0.0031280517578125
1772455918473979000,8.287978759765625,-1.0761871337890625,-0.23736572265625,0.0091400146484375
1772455918483997000,8.297996826171875,-1.0903472900390625,-0.2269439697265625,0.019683837890625
1772455918494014700,8.3080146484375,-1.09912109375,-0.2192230224609375,0.03131103515625
1772455918504032800,8.31803271484375,-1.097991943359375,-0.220703125,0.0417938232421875
1772455918514051800,8.3280517578125,-1.09674072265625,-0.2298736572265625,0.0571441650390625
1772455918524070000,8.33806982421875,-1.0982666015625,-0.2391510009765625,0.064483642578125
1772455918534088000,8.348087890625,-1.105743408203125,-0.2371826171875,0.063323974609375
1772455918544105700,8.358105712890625,-1.1254425048828125,-0.228424072265625,0.0487518310546875
1772455918554123800,8.368123779296875,-1.153350830078125,-0.219268798828125,0.0257415771484375
1772455918564141800,8.378141845703125,-1.181549072265625,-0.206329345703125,0.007049560546875
1772455918574160000,8.388159912109375,-1.201873779296875,-0.185638427734375,-0.0157470703125
1772455918584177700,8.398177734375,-1.204345703125,-0.161346435546875,-0.0379486083984375
1772455918594196700,8.40819677734375,-1.183868408203125,-0.140411376953125,-0.0542755126953125
1772455918604214800,8.41821484375,-1.143157958984375,-0.115325927734375,-0.0607147216796875
1772455918614232800,8.42823291015625,-1.0838623046875,-0.093994140625,-0.05523681640625
1772455918624251000,8.4382509765625,-1.0216064453125,-0.08514404296875,-0.0290374755859375
1772455918634268700,8.4482685546875,-0.9708251953125,-0.0798797607421875,0.0052032470703125
1772455918644287000,8.458286865234374,-0.9364013671875,-0.0750732421875,0.033782958984375
1772455918654304800,8.4683046875,-0.9259490966796875,-0.0726318359375,0.0540924072265625
1772455918664323800,8.47832373046875,-0.9365386962890625,-0.0695037841796875,0.0708770751953125
1772455918674342000,8.488341796875,-0.960479736328125,-0.069183349609375,0.0910186767578125
1772455918684359700,8.498359619140626,-0.9825286865234375,-0.0751495361328125,0.097412109375
1772455918694378000,8.5083779296875,-0.9952545166015625,-0.08837890625,0.08331298828125
1772455918704395800,8.518395751953125,-0.991546630859375,-0.104400634765625,0.0610198974609375
1772455918714413800,8.528413818359375,-0.9771881103515625,-0.1127471923828125,0.037750244140625
1772455918724432000,8.538431884765625,-0.963897705078125,-0.1158905029296875,0.0155487060546875
1772455918734450000,8.548449951171875,-0.9588165283203125,-0.1103057861328125,-0.0060577392578125
1772455918744468700,8.55846875,-0.963043212890625,-0.0992431640625,-0.01849365234375
1772455918754486800,8.56848681640625,-0.9748687744140625,-0.0813446044921875,-0.02337646484375
1772455918764504800,8.5785048828125,-0.9877166748046875,-0.0565948486328125,-0.0096282958984375
1772455918774523000,8.58852294921875,-0.9982452392578125,-0.026214599609375,0.01513671875
1772455918784541000,8.598541015625,-1.002777099609375,0.007904052734375,0.0315704345703125
1772455918794558700,8.608558837890625,-1.0078125,0.0264434814453125,0.04443359375
1772455918804576800,8.61857666015625,-1.01019287109375,0.025543212890625,0.0490570068359375
1772455918814595800,8.628595947265625,-1.0055694580078125,0.0091552734375,0.0494842529296875
1772455918824614100,8.6386142578125,-0.99041748046875,-0.0036773681640625,0.0532989501953125
1772455918834632000,8.6486318359375,-0.9671173095703125,-0.007659912109375,0.0640106201171875
1772455918844650000,8.65864990234375,-0.9455718994140625,-0.0091705322265625,0.08673095703125
1772455918854667800,8.668667724609374,-0.924224853515625,-0.0091094970703125,0.0988922119140625
1772455918864686000,8.67868603515625,-0.9024810791015625,-0.0166015625,0.101531982421875
1772455918874704000,8.688703857421874,-0.8847808837890625,-0.027618408203125,0.101837158203125
1772455918884722000,8.698721923828124,-0.8686676025390625,-0.0416717529296875,0.1006317138671875
1772455918894741000,8.708740966796874,-0.8627166748046875,-0.0588531494140625,0.0931549072265625
1772455918904759000,8.718759033203124,-0.8622589111328125,-0.07598876953125,0.0799102783203125
1772455918914777000,8.728777099609376,-0.873504638671875,-0.0850982666015625,0.06494140625
1772455918924795000,8.738794921875,-0.8889312744140625,-0.0912933349609375,0.053314208984375
1772455918934813000,8.74881298828125,-0.9057769775390625,-0.102630615234375,0.0403900146484375
1772455918944831000,8.7588310546875,-0.920745849609375,-0.1124725341796875,0.0298614501953125
1772455918954849000,8.76884912109375,-0.9301605224609375,-0.1200714111328125,0.0247344970703125
1772455918964868000,8.7788681640625,-0.9315948486328125,-0.126220703125,0.0219268798828125
1772455918974886000,8.788885986328125,-0.9270782470703125,-0.1349639892578125,0.0267181396484375
1772455918984904000,8.798904052734375,-0.9239044189453125,-0.1534423828125,0.0281829833984375
1772455918994922000,8.808921875,-0.928619384765625,-0.174560546875,0.016571044921875
1772455919004940000,8.81893994140625,-0.9395599365234375,-0.1951141357421875,0.000732421875
1772455919014957800,8.828957763671875,-0.9606781005859375,-0.215606689453125,-0.0217742919921875
1772455919024976100,8.83897607421875,-0.9769134521484375,-0.2250213623046875,-0.035675048828125
1772455919034995200,8.8489951171875,-0.9867095947265625,-0.229034423828125,-0.0424346923828125
1772455919045013000,8.859012939453125,-0.9870452880859375,-0.234039306640625,-0.0430755615234375
1772455919055031000,8.869031005859375,-0.98150634765625,-0.2409820556640625,-0.0405120849609375
1772455919065048800,8.879048828125,-0.975982666015625,-0.2423553466796875,-0.030914306640625
1772455919075067100,8.889067138671875,-0.9744873046875,-0.2403106689453125,-0.0174102783203125
1772455919085085000,8.8990849609375,-0.9758453369140625,-0.2365264892578125,-0.0074005126953125
1772455919095103000,8.90910302734375,-0.98309326171875,-0.233673095703125,-0.0017852783203125
1772455919105121000,8.91912109375,-0.9946136474609375,-0.2369537353515625,-0.0008087158203125
1772455919115139800,8.929139892578124,-1.0020294189453125,-0.2476806640625,-0.011627197265625
1772455919125158100,8.939158203125,-1.0061798095703125,-0.2584686279296875,-0.0238800048828125
1772455919135176000,8.949176025390624,-1.005950927734375,-0.2642974853515625,-0.0304718017578125
1772455919145194000,8.959194091796874,-0.997650146484375,-0.2653045654296875,-0.0250701904296875
1772455919155212000,8.9692119140625,-0.9897003173828125,-0.2625579833984375,-0.0118865966796875
1772455919165230000,8.97922998046875,-0.9834442138671875,-0.2556915283203125,0.006195068359375
1772455919175248000,8.989247802734376,-0.97930908203125,-0.245452880859375,0.0291900634765625
1772455919185266000,8.999265869140626,-0.9833221435546875,-0.2355804443359375,0.056304931640625
1772455919195285000,9.009284912109376,-0.997344970703125,-0.2297210693359375,0.0726165771484375
1772455919205303000,9.019302978515626,-1.0159912109375,-0.226409912109375,0.078887939453125
1772455919215321000,9.029321044921875,-1.0338134765625,-0.2300872802734375,0.0759124755859375
1772455919225339000,9.0393388671875,-1.0453033447265625,-0.23291015625,0.0672760009765625
1772455919235357000,9.04935693359375,-1.0486602783203125,-0.236785888671875,0.0606689453125
1772455919245375000,9.059375,-1.041046142578125,-0.2330322265625,0.0465087890625
1772455919255393000,9.06939306640625,-1.01715087890625,-0.226043701171875,0.0396270751953125
1772455919265411800,9.079411865234375,-0.9856719970703125,-0.2183380126953125,0.0389404296875
1772455919275430000,9.089429931640625,-0.961578369140625,-0.21258544921875,0.0379180908203125
1772455919285448200,9.0994482421875,-0.964813232421875,-0.2085418701171875,0.04302978515625
1772455919295466000,9.109466064453125,-0.9874725341796875,-0.203704833984375,0.046661376953125
1772455919305484000,9.119484130859375,-1.02117919921875,-0.1950531005859375,0.046234130859375
1772455919315501800,9.129501708984375,-1.06134033203125,-0.1825714111328125,0.04229736328125
1772455919325520100,9.13952001953125,-1.10400390625,-0.166290283203125,0.03265380859375
1772455919335538000,9.149537841796874,-1.14361572265625,-0.1470489501953125,0.0144805908203125
1772455919345557000,9.159556884765625,-1.1674652099609375,-0.1313629150390625,-0.014251708984375
1772455919355575000,9.169574951171874,-1.167633056640625,-0.1216583251953125,-0.031524658203125
1772455919365592800,9.1795927734375,-1.142425537109375,-0.115692138671875,-0.04266357421875
1772455919375611100,9.189611083984374,-1.1020660400390625,-0.11065673828125,-0.0457763671875
1772455919385629000,9.19962890625,-1.0626983642578125,-0.101043701171875,-0.04156494140625
1772455919395647000,9.20964697265625,-1.03375244140625,-0.0847320556640625,-0.033233642578125
1772455919405665000,9.2196650390625,-1.009185791015625,-0.070831298828125,-0.0137786865234375
1772455919415684000,9.22968408203125,-1.000823974609375,-0.05975341796875,0.02001953125
1772455919425702000,9.239701904296876,-1.005615234375,-0.0439605712890625,0.0363311767578125
1772455919435720000,9.249719970703126,-1.01776123046875,-0.030487060546875,0.0453643798828125
1772455919445738000,9.259738037109376,-1.027740478515625,-0.01995849609375,0.0493621826171875
1772455919455756000,9.269756103515626,-1.0433807373046875,-0.0113067626953125,0.0245819091796875
1772455919465774000,9.279774169921875,-1.0541534423828125,-0.0108184814453125,-0.0228729248046875
1772455919475792000,9.2897919921875,-1.0531463623046875,-0.0225830078125,-0.0685272216796875
1772455919485810000,9.299809814453125,-1.029266357421875,-0.0465545654296875,-0.0978851318359375
1772455919495829000,9.3098291015625,-0.9896392822265625,-0.0757293701171875,-0.10968017578125
1772455919505847000,9.319846923828125,-0.943756103515625,-0.096435546875,-0.105621337890625
1772455919515865000,9.329864990234375,-0.906402587890625,-0.1049957275390625,-0.092437744140625
1772455919525883000,9.3398828125,-0.8836517333984375,-0.10992431640625,-0.06243896484375
1772455919535901200,9.349901123046875,-0.8736419677734375,-0.108673095703125,-0.0313873291015625
1772455919545919000,9.3599189453125,-0.8896636962890625,-0.11187744140625,-0.006317138671875
1772455919555937000,9.36993701171875,-0.91693115234375,-0.120330810546875,0.0044708251953125
1772455919565955800,9.379955810546875,-0.9573211669921875,-0.13482666015625,-0.0010528564453125
1772455919575974000,9.389973876953125,-1.00164794921875,-0.1546478271484375,-0.02032470703125
1772455919585992000,9.399991943359375,-1.03875732421875,-0.17718505859375,-0.044677734375
1772455919596010000,9.410010009765625,-1.063873291015625,-0.1976318359375,-0.0655517578125
1772455919606028000,9.420028076171874,-1.0740203857421875,-0.214996337890625,-0.086944580078125
1772455919616045800,9.4300458984375,-1.0685882568359375,-0.2290496826171875,-0.107421875
1772455919626064100,9.440064208984374,-1.0452880859375,-0.2398223876953125,-0.1125640869140625
1772455919636082000,9.45008203125,-1.0087738037109375,-0.2437286376953125,-0.102081298828125
1772455919646101000,9.46010107421875,-0.9651641845703125,-0.24310302734375,-0.0847320556640625
1772455919656118800,9.470118896484376,-0.9190216064453125,-0.2404632568359375,-0.0697784423828125
1772455919666137000,9.48013720703125,-0.8735198974609375,-0.2387847900390625,-0.05548095703125
1772455919676155100,9.490155029296876,-0.83538818359375,-0.2459716796875,-0.04595947265625
1772455919686173000,9.5001728515625,-0.8066558837890625,-0.2539825439453125,-0.041107177734375
1772455919696191000,9.51019091796875,-0.799163818359375,-0.2582855224609375,-0.0421905517578125
1772455919706209000,9.520208984375,-0.8059844970703125,-0.2549591064453125,-0.0472259521484375
1772455919716228000,9.53022802734375,-0.8262786865234375,-0.2498626708984375,-0.049163818359375
1772455919726246000,9.540245849609375,-0.8505706787109375,-0.2404327392578125,-0.044586181640625
1772455919736264000,9.550263916015625,-0.8641204833984375,-0.22772216796875,-0.0377349853515625
1772455919746282000,9.560281982421875,-0.857635498046875,-0.21575927734375,-0.0322723388671875
1772455919756300000,9.570300048828125,-0.8415985107421875,-0.21240234375,-0.027862548828125
1772455919766318000,9.580318115234375,-0.8325042724609375,-0.21185302734375,-0.0273284912109375
1772455919776336000,9.5903359375,-0.8351287841796875,-0.207977294921875,-0.0252227783203125
1772455919786354200,9.600354248046875,-0.8455810546875,-0.1966705322265625,-0.0184173583984375
1772455919796373000,9.610373046875,-0.8599395751953125,-0.1839141845703125,-0.00396728515625
1772455919806390000,9.62039013671875,-0.8777008056640625,-0.1779327392578125,0.007843017578125
1772455919816408000,9.630407958984375,-0.9001312255859375,-0.1804656982421875,0.0086669921875
1772455919826426000,9.640426025390624,-0.925689697265625,-0.1937713623046875,-0.0027923583984375
1772455919836444200,9.650444091796874,-0.9496917724609375,-0.2132110595703125,-0.0200347900390625
1772455919846462000,9.6604619140625,-0.965423583984375,-0.22894287109375,-0.0373687744140625
1772455919856480000,9.67047998046875,-0.9698486328125,-0.2315673828125,-0.0407562255859375
1772455919866498000,9.680498046875,-0.96673583984375,-0.2252197265625,-0.03643798828125
1772455919876517000,9.69051708984375,-0.959686279296875,-0.2257232666015625,-0.0323028564453125
1772455919886535200,9.70053515625,-0.9560699462890625,-0.2342376708984375,-0.022613525390625
1772455919896553000,9.710552978515626,-0.9577789306640625,-0.2415313720703125,-0.016265869140625
1772455919906571300,9.7205712890625,-0.968658447265625,-0.250457763671875,-0.0241546630859375
1772455919916589000,9.730589111328126,-0.9935455322265625,-0.25775146484375,-0.0332183837890625
1772455919926607000,9.740607177734375,-1.0165252685546875,-0.256500244140625,-0.0481719970703125
1772455919936625000,9.750625,-1.025482177734375,-0.2577972412109375,-0.06396484375
1772455919946644000,9.76064404296875,-1.02655029296875,-0.2584686279296875,-0.063629150390625
1772455919956662000,9.770662109375,-1.0206756591796875,-0.2598724365234375,-0.0629425048828125
1772455919966680000,9.78068017578125,-1.01580810546875,-0.2636871337890625,-0.067138671875
1772455919976698000,9.790697998046875,-1.0166168212890625,-0.2655181884765625,-0.07110595703125
1772455919986716200,9.800716064453125,-1.0140533447265625,-0.2627105712890625,-0.066192626953125
1772455919996734200,9.810734130859375,-0.9930877685546875,-0.256988525390625,-0.057830810546875
1772455920006752000,9.820751953125,-0.9681854248046875,-0.26312255859375,-0.043853759765625
1772455920016770000,9.83077001953125,-0.95428466796875,-0.282196044921875,-0.0280609130859375
1772455920026788900,9.840788818359375,-0.9642333984375,-0.292022705078125,-0.01287841796875
1772455920036807200,9.85080712890625,-0.9808807373046875,-0.29376220703125,-0.012359619140625
1772455920046825200,9.8608251953125,-0.998199462890625,-0.291717529296875,-0.0194854736328125
1772455920056843000,9.870843017578125,-1.028350830078125,-0.2867431640625,-0.0272979736328125
1772455920066861000,9.880861083984374,-1.07049560546875,-0.2642059326171875,-0.0350341796875
1772455920076879000,9.890879150390624,-1.1160125732421875,-0.23126220703125,-0.0330657958984375
1772455920086897200,9.900897216796874,-1.1529541015625,-0.19818115234375,-0.01910400390625
1772455920096916000,9.910916015625,-1.1895294189453125,-0.17047119140625,-0.0031280517578125
1772455920106934000,9.92093408203125,-1.205169677734375,-0.1427001953125,0.00555419921875
1772455920116952000,9.9309521484375,-1.196197509765625,-0.12298583984375,0.0189056396484375
1772455920126970000,9.94097021484375,-1.1544036865234375,-0.11126708984375,0.0299835205078125
1772455920136988200,9.95098828125,-1.0995635986328125,-0.1094970703125,0.0456085205078125
1772455920147006000,9.961005859375,-1.044158935546875,-0.1172332763671875,0.052764892578125
1772455920157024300,9.971024169921876,-0.9862518310546875,-0.126922607421875,0.054656982421875
1772455920167042000,9.9810419921875,-0.9324951171875,-0.1422271728515625,0.0570068359375
1772455920177061000,9.99106103515625,-0.8857421875,-0.1528472900390625,0.0643310546875
1772455920187079000,10.001078857421875,-0.85455322265625,-0.16302490234375,0.074920654296875
1772455920197097000,10.011096923828125,-0.840118408203125,-0.16717529296875,0.0796661376953125
1772455920207115300,10.021115234375,-0.8423004150390625,-0.1652374267578125,0.0751953125
1772455920217133000,10.031133056640625,-0.856658935546875,-0.154083251953125,0.0731658935546875
1772455920227151000,10.041151123046875,-0.878021240234375,-0.135894775390625,0.079833984375
1772455920237169200,10.051169189453125,-0.9067230224609375,-0.1108856201171875,0.076568603515625
1772455920247187200,10.061187255859375,-0.9408111572265625,-0.0780487060546875,0.060333251953125
1772455920257206000,10.0712060546875,-0.967742919921875,-0.0472259521484375,0.04339599609375
1772455920267224000,10.08122412109375,-0.9792633056640625,-0.019134521484375,0.0359344482421875
1772455920277241900,10.091241943359375,-0.981903076171875,0.0069580078125,0.036865234375
1772455920287260200,10.10126025390625,-0.9764862060546875,0.0311737060546875,0.050811767578125
1772455920297278200,10.1112783203125,-0.96990966796875,0.04962158203125,0.071868896484375
1772455920307296000,10.1212958984375,-0.9650115966796875,0.06146240234375,0.097076416015625
1772455920317314000,10.13131396484375,-0.9628448486328125,0.063995361328125,0.1214752197265625
1772455920327332900,10.141332763671874,-0.9651641845703125,0.0558929443359375,0.1356201171875
1772455920337351200,10.15135107421875,-0.9668426513671875,0.0417327880859375,0.138458251953125
1772455920347369000,10.161368896484374,-0.968658447265625,0.0235137939453125,0.1331787109375
1772455920357387000,10.171386962890624,-0.9779815673828125,0.007049560546875,0.126190185546875
1772455920367405000,10.181405029296876,-0.9970703125,-0.0101776123046875,0.117645263671875
1772455920377423000,10.191423095703126,-1.0189056396484375,-0.02337646484375,0.0944366455078125
1772455920387441200,10.201441162109376,-1.0340423583984375,-0.029815673828125,0.0750274658203125
1772455920397459000,10.211458984375,-1.0385589599609375,-0.033538818359375,0.059600830078125
1772455920407478000,10.22147802734375,-1.0357208251953125,-0.0384979248046875,0.047149658203125
1772455920417496000,10.23149609375,-1.0236968994140625,-0.04779052734375,0.036956787109375
1772455920427514000,10.24151416015625,-1.0190582275390625,-0.056854248046875,0.0273590087890625
1772455920437532000,10.251531982421875,-1.0222930908203125,-0.0619049072265625,0.0146484375
1772455920447550000,10.261550048828125,-1.02484130859375,-0.066741943359375,-0.0009002685546875
1772455920457568300,10.271568359375,-1.023101806640625,-0.070281982421875,-0.0015411376953125
1772455920467586000,10.2815859375,-1.018218994140625,-0.0779266357421875,0.00225830078125
1772455920477605000,10.291605224609375,-1.0151824951171875,-0.0941314697265625,-0.0011444091796875
1772455920487623000,10.301622802734375,-1.0035552978515625,-0.1165008544921875,-0.010223388671875
1772455920497641000,10.311640869140625,-0.98687744140625,-0.139129638671875,-0.0257720947265625
1772455920507659000,10.321658935546875,-0.97076416015625,-0.1564178466796875,-0.0430145263671875
1772455920517677000,10.331677001953125,-0.953125,-0.17041015625,-0.0572509765625
1772455920527694800,10.34169482421875,-0.9407501220703125,-0.1824188232421875,-0.05938720703125
1772455920537713200,10.351713134765625,-0.9353485107421875,-0.181640625,-0.0593719482421875
1772455920547731200,10.361731201171875,-0.9318389892578125,-0.176361083984375,-0.0581512451171875
1772455920557750000,10.37175,-0.9362945556640625,-0.1743621826171875,-0.0487823486328125
1772455920567768000,10.38176806640625,-0.9452056884765625,-0.17047119140625,-0.0362091064453125
1772455920577785900,10.391785888671874,-0.96343994140625,-0.166412353515625,-0.02935791015625
1772455920587804200,10.40180419921875,-0.9749908447265625,-0.1729736328125,-0.03314208984375
1772455920597822000,10.411822021484374,-0.98260498046875,-0.1793975830078125,-0.0328826904296875
1772455920607840000,10.421840087890626,-0.9968719482421875,-0.189300537109375,-0.027557373046875
1772455920617858000,10.431858154296876,-1.009552001953125,-0.189971923828125,-0.0246124267578125
1772455920627876000,10.4418759765625,-1.020538330078125,-0.1877593994140625,-0.015289306640625
1772455920637895200,10.451895263671876,-1.029693603515625,-0.181732177734375,-0.0050811767578125
1772455920647913000,10.461912841796876,-1.0289459228515625,-0.1815338134765625,-0.006195068359375
1772455920657931000,10.471930908203126,-1.0313568115234375,-0.1857757568359375,-0.0129852294921875
1772455920667949000,10.481948974609375,-1.038543701171875,-0.1927490234375,-0.0167694091796875
1772455920677967000,10.491967041015625,-1.0453338623046875,-0.196746826171875,-0.01611328125
1772455920687985000,10.50198486328125,-1.04736328125,-0.1983642578125,-0.0161285400390625
1772455920698003000,10.5120029296875,-1.0455780029296875,-0.198822021484375,-0.0165557861328125
1772455920708022000,10.52202197265625,-1.0471954345703125,-0.1936187744140625,-0.0182647705078125
1772455920718040000,10.5320400390625,-1.0413055419921875,-0.1844635009765625,-0.0272216796875
1772455920728058000,10.54205810546875,-1.0254974365234375,-0.18414306640625,-0.0369415283203125
1772455920738076000,10.552075927734375,-1.004730224609375,-0.1903533935546875,-0.0416717529296875
1772455920748094200,10.56209423828125,-0.99102783203125,-0.2026519775390625,-0.044647216796875
1772455920758112000,10.572112060546875,-0.9964447021484375,-0.2153167724609375,-0.054534912109375
1772455920768130000,10.582130126953125,-1.0240020751953125,-0.222381591796875,-0.0631256103515625
1772455920778148000,10.592148193359375,-1.060943603515625,-0.213165283203125,-0.0670623779296875
1772455920788167000,10.6021669921875,-1.0935211181640625,-0.1939544677734375,-0.076202392578125
1772455920798185200,10.612185302734375,-1.1197509765625,-0.1687164306640625,-0.0889892578125
1772455920808203300,10.622203369140625,-1.1401214599609375,-0.14630126953125,-0.0929412841796875
1772455920818221300,10.63222119140625,-1.148834228515625,-0.119873046875,-0.0897369384765625
1772455920828239000,10.642239013671874,-1.13409423828125,-0.096435546875,-0.0781707763671875
1772455920838257400,10.65225732421875,-1.1013641357421875,-0.088623046875,-0.06195068359375
1772455920848275500,10.662275390625,-1.0588531494140625,-0.0884246826171875,-0.0492095947265625
1772455920858293200,10.672293212890626,-1.016021728515625,-0.090667724609375,-0.039154052734375
1772455920868312300,10.682312255859374,-0.9795684814453125,-0.099456787109375,-0.0291290283203125
1772455920878330000,10.692330078125,-0.9523773193359375,-0.11395263671875,-0.01593017578125
1772455920888348400,10.702348388671876,-0.9381561279296875,-0.1225738525390625,-0.0027923583984375
1772455920898366200,10.7123662109375,-0.94512939453125,-0.121978759765625,0.0068359375
1772455920908384300,10.72238427734375,-0.9573822021484375,-0.1119842529296875,0.0129852294921875
1772455920918402300,10.73240234375,-0.959442138671875,-0.1016998291015625,0.009368896484375
1772455920928420400,10.74242041015625,-0.96014404296875,-0.0855560302734375,0.01153564453125
1772455920938439400,10.752439453125,-0.9840545654296875,-0.06414794921875,-0.00299072265625
1772455920948457200,10.762457275390625,-0.9830322265625,-0.095458984375,0.04193115234375
1772455920958475300,10.772475341796875,-0.9777984619140625,-0.1254425048828125,0.076812744140625
1772455920968493300,10.782493408203125,-0.9979400634765625,-0.11627197265625,0.0597991943359375
1772455920978511400,10.792511474609375,-1.033538818359375,-0.08697509765625,0.003387451171875
1772455920988529200,10.802529052734375,-1.0464630126953125,-0.0667572021484375,0.0025787353515625
1772455920998547200,10.812547119140625,-1.0483245849609375,-0.0525970458984375,0.02569580078125
1772455921008565200,10.822565185546875,-1.06024169921875,-0.05810546875,0.0110931396484375
