time,seconds_elapsed,z,y,x
1772455910267869200,0.081869140625,0.007397710345685482,0.08049235492944717,-0.05863555148243904
1772455910277887200,0.09188720703125,0.005726842675358057,0.06514696031808853,-0.048188503831624985
1772455910287905300,0.1019052734375,0.000802979338914156,0.03688415512442589,-0.03546679764986038
1772455910297923300,0.11192333984375,0.0035803900100290775,0.005421035923063755,-0.013667759485542774
1772455910307941000,0.121941162109375,0.013546653091907501,-0.009728978388011456,0.015007645823061466
1772455910317959400,0.13195947265625,0.025081602856516838,-0.019976023584604263,0.04202914237976074
1772455910327978500,0.141978515625,0.02685338258743286,-0.04257139191031456,0.0589970164000988
1772455910337996300,0.151996337890625,0.023548932746052742,-0.05720812454819679,0.057093922048807144
1772455910348014300,0.162014404296875,0.023412790149450302,-0.03864695504307747,0.047397565096616745
1772455910358032100,0.1720322265625,0.024977929890155792,-0.020986201241612434,0.02372046560049057
1772455910368050400,0.182050537109375,0.0286296047270298,-0.020131995901465416,-0.010229035280644894
1772455910378068200,0.192068115234375,0.018313851207494736,-0.03297562152147293,-0.04298831522464752
1772455910388086300,0.202086181640625,0.017045261338353157,-0.031758736819028854,-0.062464047223329544
1772455910398105300,0.212105224609375,0.013375159353017807,-0.012769598513841629,-0.06625984609127045
1772455910408123100,0.222123046875,0.0014565042220056057,-0.0008343758527189493,-0.06556977331638336
1772455910418141400,0.232141357421875,-0.013144808821380138,-0.0035393484868109226,-0.05082651227712631
1772455910428159200,0.2421591796875,-0.02441418543457985,-0.008632110431790352,-0.028509169816970825
1772455910438177300,0.25217724609375,-0.026595845818519592,0.004944417625665665,-0.009008439257740974
1772455910448195300,0.2621953125,-0.029021508991718292,0.01868499629199505,-0.0008160752477124333
1772455910458213400,0.27221337890625,-0.04085340350866318,0.022687461227178574,-0.012709752656519413
1772455910468232400,0.282232421875,-0.04868216812610626,0.02003566361963749,-0.03213002160191536
1772455910478250200,0.292250244140625,-0.05985892191529274,0.007535051554441452,-0.060198139399290085
1772455910488268300,0.302268310546875,-0.06531396508216858,-0.007908042520284653,-0.07815814763307571
1772455910498286300,0.312286376953125,-0.07499482482671738,-0.02359725721180439,-0.08265382796525955
1772455910508304400,0.322304443359375,-0.07425495982170105,-0.008022336289286613,-0.07662057131528854
1772455910518322200,0.332322265625,-0.06739173084497452,0.0355863943696022,-0.06496817618608475
1772455910528341200,0.34234130859375,-0.06189342588186264,0.0669134259223938,-0.05834468454122543
1772455910538359300,0.352359375,-0.05255238711833954,0.0646449476480484,-0.056369949132204056
1772455910548377300,0.36237744140625,-0.034969642758369446,0.03544662147760391,-0.04446941986680031
1772455910558395400,0.3723955078125,-0.005900709889829159,0.006510578095912933,-0.016838327050209045
1772455910568413200,0.3824130859375,0.021471260115504265,-0.02551792934536934,0.021448608487844467
1772455910578431500,0.392431396484375,0.040366124361753464,-0.07002254575490952,0.07091762125492096
1772455910588449300,0.40244921875,0.046237245202064514,-0.10141278058290482,0.11483056843280792
1772455910598468400,0.41246826171875,0.04878349229693413,-0.07873250544071198,0.1541484296321869
1772455910608486400,0.422486328125,0.05357472598552704,-0.005932065658271313,0.18520109355449677
1772455910618504200,0.432504150390625,0.06159643456339836,0.09288132935762405,0.21574461460113525
1772455910628522500,0.4425224609375,0.06325787305831909,0.19002853333950043,0.2507155239582062
1772455910638540300,0.452540283203125,0.05782529339194298,0.2342497855424881,0.2708152234554291
1772455910648558300,0.462558349609375,0.061281535774469376,0.2271168977022171,0.2997475564479828
1772455910658576100,0.472576171875,0.07377789169549942,0.12273617088794708,0.3360520303249359
1772455910668595200,0.48259521484375,0.05284343659877777,-0.022669322788715363,0.3788391947746277
1772455910678613500,0.492613525390625,-0.0041047995910048485,-0.15289071202278137,0.4200223386287689
1772455910688631300,0.50263134765625,-0.06971773505210876,-0.19943436980247498,0.43306559324264526
1772455910698649300,0.5126494140625,-0.11345110088586807,-0.1587926745414734,0.4014964699745178
1772455910708667400,0.52266748046875,-0.12798243761062622,-0.07729945331811905,0.33157971501350403
1772455910718685400,0.532685546875,-0.12361937761306763,-0.004175439011305571,0.23231971263885498
1772455910728703200,0.542703125,-0.12154935300350189,0.0496436282992363,0.12080264836549759
1772455910738722300,0.552722412109375,-0.11724435538053513,0.09785057604312897,0.02296956069767475
1772455910748740000,0.562739990234375,-0.1133338138461113,0.16762326657772064,-0.02279585599899292
1772455910758758400,0.57275830078125,-0.10800535976886749,0.28976595401763916,-0.0110611692070961
1772455910768776400,0.5827763671875,-0.10311967134475708,0.4356006681919098,0.03428104892373085
1772455910778794200,0.592794189453125,-0.1010487973690033,0.5111846327781677,0.11575966328382492
1772455910788812300,0.602812255859375,-0.10211624950170517,0.5135239958763123,0.21492986381053925
1772455910798830800,0.612830810546875,-0.09236828237771988,0.4637060761451721,0.2983904182910919
1772455910808850000,0.622849853515625,-0.09680773317813873,0.3989694118499756,0.3631594181060791
1772455910818867700,0.63286767578125,-0.11295181512832642,0.39443111419677734,0.4117072522640228
1772455910828885800,0.6428857421875,-0.1274615377187729,0.44691458344459534,0.45487669110298157
1772455910838903600,0.652903564453125,-0.14855670928955078,0.46576815843582153,0.4576655328273773
1772455910848921900,0.662921875,-0.18700776994228363,0.38986149430274963,0.41034653782844543
1772455910858939600,0.672939697265625,-0.2232576459646225,0.30629605054855347,0.3341633379459381
1772455910868957700,0.682957763671875,-0.20805040001869202,0.24121496081352234,0.24519535899162292
1772455910878976800,0.692976806640625,-0.1575653851032257,0.20359355211257935,0.15100841224193573
1772455910888994800,0.702994873046875,-0.08164352923631668,0.18445883691310883,0.0492306724190712
1772455910899012900,0.713012939453125,-0.008076904341578484,0.15843868255615234,-0.044831644743680954
1772455910909030700,0.72303076171875,0.03406763821840286,0.10339890420436859,-0.13153837621212006
1772455910919048700,0.733048583984375,0.04313090816140175,0.09572181105613708,-0.180928036570549
1772455910929066800,0.743066650390625,0.0234969649463892,0.054561059921979904,-0.21280692517757416
1772455910939085800,0.7530859375,-0.012127873487770557,-0.24561020731925964,-0.24066011607646942
1772455910949103900,0.763103759765625,-0.04730326309800148,-0.4140862822532654,-0.23198531568050385
1772455910959121700,0.77312158203125,-0.11673000454902649,-0.4452788233757019,-0.20595026016235352
1772455910969139700,0.7831396484375,-0.19168300926685333,-0.3651997447013855,-0.18075305223464966
1772455910979157800,0.79315771484375,-0.25804364681243896,-0.21612852811813354,-0.16726359724998474
1772455910989175800,0.80317578125,-0.31647351384162903,-0.07114510983228683,-0.17985886335372925
1772455910999193600,0.813193603515625,-0.3524962365627289,0.040834419429302216,-0.21025165915489197
1772455911009212700,0.823212646484375,-0.35418426990509033,0.11630742996931076,-0.24771170318126678
1772455911019230700,0.833230712890625,-0.3219059407711029,0.15537945926189423,-0.2742527723312378
1772455911029248800,0.843248779296875,-0.2613525092601776,0.16862305998802185,-0.2806399464607239
1772455911039266800,0.853266845703125,-0.19520384073257446,0.1432979851961136,-0.2600124180316925
1772455911049284600,0.86328466796875,-0.13107159733772278,0.08103629946708679,-0.222251757979393
1772455911059303000,0.873302978515625,-0.06301157921552658,-0.016669217497110367,-0.1769798845052719
1772455911069320700,0.88332080078125,0.006077636033296585,-0.1370202600955963,-0.11661997437477112
1772455911079339800,0.89333984375,0.06142797693610191,-0.23405466973781586,-0.043785449117422104
1772455911089357600,0.903357666015625,0.09413385391235352,-0.3141202926635742,0.04100377485156059
1772455911099375600,0.913375732421875,0.10333427041769028,-0.3758411705493927,0.12737515568733215
1772455911109394000,0.923393798828125,0.1028847023844719,-0.41491571068763733,0.20618674159049988
1772455911119411700,0.93341162109375,0.09616927802562714,-0.43006056547164917,0.2662830948829651
1772455911129429800,0.9434296875,0.08224205672740936,-0.4081500768661499,0.2943859100341797
1772455911139447800,0.95344775390625,0.06039934232831001,-0.35837507247924805,0.27566733956336975
1772455911149467000,0.963466796875,0.036582231521606445,-0.28541627526283264,0.22536659240722656
1772455911159484700,0.973484619140625,0.004079682752490044,-0.2041293829679489,0.15148891508579254
1772455911169502700,0.983502685546875,-0.0370226614177227,-0.12468081712722778,0.06462184339761734
1772455911179520500,0.9935205078125,-0.06884690374135971,-0.04054596647620201,-0.019644301384687424
1772455911189538800,1.003538818359375,-0.08146412670612335,0.043440233916044235,-0.10112598538398743
1772455911199556900,1.013556884765625,-0.07200058549642563,0.10850392282009125,-0.1688978523015976
1772455911209575700,1.02357568359375,-0.06587305665016174,0.16397935152053833,-0.20425713062286377
1772455911219593700,1.03359375,-0.06414493173360825,0.1703304499387741,-0.21701420843601227
1772455911229611500,1.043611572265625,-0.07393964380025864,0.13744990527629852,-0.22160999476909637
1772455911239629800,1.0536298828125,-0.06658346205949783,0.09077055007219315,-0.20682066679000854
1772455911249647600,1.063647705078125,-0.05739206075668335,0.03642817586660385,-0.19689732789993286
1772455911259665700,1.073665771484375,-0.0416402593255043,-0.01811070181429386,-0.1880556344985962
1772455911269683700,1.08368359375,-0.019757548347115517,-0.06167295575141907,-0.18253377079963684
1772455911279702800,1.093702880859375,-0.007456407882273197,-0.10860265046358109,-0.15040859580039978
1772455911289720800,1.103720947265625,-0.00023985933512449265,-0.13916809856891632,-0.093696229159832
1772455911299738600,1.113738525390625,-0.002757078967988491,-0.1617535650730133,-0.026194153353571892
1772455911309756700,1.123756591796875,-0.024813007563352585,-0.16663821041584015,0.02661910094320774
1772455911319774700,1.133774658203125,-0.043112121522426605,-0.16629253327846527,0.0355694554746151
1772455911329792800,1.143792724609375,-0.04815811663866043,-0.1651672124862671,0.01846652664244175
1772455911339810600,1.153810546875,-0.05307750776410103,-0.16258926689624786,-0.01721770130097866
1772455911349829600,1.16382958984375,-0.06358948349952698,-0.14045973122119904,-0.05425689369440079
1772455911359847700,1.17384765625,-0.06820980459451675,-0.12475960701704025,-0.09279150515794754
1772455911369865700,1.18386572265625,-0.0646079033613205,-0.12440402805805206,-0.12137240916490555
1772455911379883800,1.1938837890625,-0.0727957934141159,-0.1269441545009613,-0.13711701333522797
1772455911389901600,1.203901611328125,-0.08852988481521606,-0.10526739060878754,-0.128774955868721
1772455911399919900,1.213919921875,-0.10129228979349136,-0.06249915435910225,-0.11755985021591187
1772455911409937700,1.223937744140625,-0.11097215861082077,-0.012978035025298595,-0.09916265308856964
1772455911419956700,1.233956787109375,-0.12425441294908524,0.03788647800683975,-0.09033907204866409
1772455911429974800,1.243974853515625,-0.14106124639511108,0.07491298764944077,-0.08238816261291504
1772455911439992600,1.25399267578125,-0.1531171053647995,0.08743996918201447,-0.0808509811758995
1772455911450011000,1.264010986328125,-0.1602163463830948,0.0786181092262268,-0.08705087751150131
1772455911460028700,1.274028564453125,-0.16324222087860107,0.055780164897441864,-0.10864964872598648
1772455911470046700,1.284046630859375,-0.1584487110376358,0.02784356288611889,-0.130133718252182
1772455911480064500,1.294064453125,-0.14461225271224976,0.012523197568953037,-0.14724746346473694
1772455911490083600,1.30408349609375,-0.12706594169139862,0.007939275354146957,-0.1483236700296402
1772455911500102000,1.314101806640625,-0.12087995558977127,0.001770861679688096,-0.14806747436523438
1772455911510119700,1.32411962890625,-0.11705338954925537,-0.018732724711298943,-0.1447710543870926
1772455911520137700,1.3341376953125,-0.10454904288053513,-0.04084122180938721,-0.1427539736032486
1772455911530155800,1.34415576171875,-0.07873330265283585,-0.05769219994544983,-0.12651397287845612
1772455911540173800,1.354173828125,-0.05668685585260391,-0.06231384724378586,-0.10763109475374222
1772455911550191600,1.364191650390625,-0.03358745202422142,-0.0736629068851471,-0.08910486847162247
1772455911560210700,1.374210693359375,-0.008181692101061344,-0.09696636348962784,-0.06908535957336426
1772455911570228700,1.384228759765625,0.011197241954505444,-0.12236595153808594,-0.04672509804368019
1772455911580246800,1.394246826171875,0.014200755394995213,-0.1509358137845993,-0.03280608728528023
1772455911590264800,1.404264892578125,0.017882881686091423,-0.16668352484703064,-0.015502609312534332
1772455911600282600,1.41428271484375,0.029676424339413643,-0.17972315847873688,-0.0031886855140328407
1772455911610300700,1.42430078125,0.04876432567834854,-0.1970793455839157,0.01568368636071682
1772455911620318700,1.434318603515625,0.07080171257257462,-0.21285511553287506,0.0428101122379303
1772455911630337800,1.444337890625,0.09227942675352097,-0.22933714091777802,0.06949349492788315
1772455911640355800,1.45435595703125,0.11324835568666458,-0.2487364113330841,0.09730648249387741
1772455911650373600,1.46437353515625,0.11872808635234833,-0.25646206736564636,0.1320582628250122
1772455911660391700,1.4743916015625,0.1014377772808075,-0.24095261096954346,0.1623019129037857
1772455911670409700,1.48440966796875,0.07537005096673965,-0.19435346126556396,0.17581631243228912
1772455911680427800,1.494427734375,0.048709943890571594,-0.13472075760364532,0.16735997796058655
1772455911690446600,1.504446533203125,0.030856750905513763,-0.07006200402975082,0.14085017144680023
1772455911700464600,1.514464599609375,0.03433723747730255,-0.018130630254745483,0.10513505339622498
1772455911710483000,1.52448291015625,0.06012306362390518,0.020744554698467255,0.07959972321987152
1772455911720500700,1.534500732421875,0.106889508664608,0.0497189499437809,0.06847304105758667
1772455911730518800,1.544518798828125,0.14795419573783875,0.07517694681882858,0.0829925686120987
1772455911740536600,1.55453662109375,0.17308750748634338,0.08705677092075348,0.11602162569761276
1772455911750555000,1.564554931640625,0.17808671295642853,0.07129495590925217,0.15395119786262512
1772455911760572700,1.57457275390625,0.18438482284545898,0.04935158044099808,0.18543241918087006
1772455911770591700,1.584591796875,0.17872612178325653,0.01833515241742134,0.21113945543766022
1772455911780609500,1.594609619140625,0.1656244397163391,-0.019911037757992744,0.21061134338378906
1772455911790627800,1.6046279296875,0.1676086187362671,-0.08518640697002411,0.19690380990505219
1772455911800645600,1.614645751953125,0.15927372872829437,-0.17732805013656616,0.17023412883281708
1772455911810663700,1.62466357421875,0.14026635885238647,-0.29120802879333496,0.14280159771442413
1772455911820681500,1.634681396484375,0.13859283924102783,-0.3799320459365845,0.11049718409776688
1772455911830699800,1.64469970703125,0.1557822972536087,-0.44530653953552246,0.08713558316230774
1772455911840718600,1.654718505859375,0.16746078431606293,-0.49166497588157654,0.07984065264463425
1772455911850736600,1.664736572265625,0.17568381130695343,-0.515861451625824,0.09467567503452301
1772455911860754400,1.67475439453125,0.1673172116279602,-0.5148696899414062,0.12947945296764374
1772455911870772500,1.6847724609375,0.14735862612724304,-0.5035703182220459,0.17929597198963165
1772455911880790800,1.694790771484375,0.1279527097940445,-0.44942694902420044,0.24141526222229004
1772455911890808600,1.70480859375,0.11440181732177734,-0.3488013446331024,0.3010580539703369
1772455911900827600,1.71482763671875,0.10645068436861038,-0.24427415430545807,0.32907822728157043
1772455911910845400,1.724845458984375,0.11946211010217667,-0.14552195370197296,0.32938656210899353
1772455911920863700,1.73486376953125,0.143263041973114,-0.06187846511602402,0.3042183518409729
1772455911930881500,1.744881591796875,0.1642863005399704,-0.017774920910596848,0.265542596578598
1772455911940899600,1.754899658203125,0.18408583104610443,-0.0030897180549800396,0.23314392566680908
1772455911950917400,1.76491748046875,0.20386295020580292,-0.011154480278491974,0.20941942930221558
1772455911960935700,1.774935791015625,0.22430270910263062,-0.04374704509973526,0.18701985478401184
1772455911970953700,1.78495361328125,0.24941596388816833,-0.07777189463376999,0.19571322202682495
1772455911980972500,1.79497265625,0.2584749758243561,-0.1480513960123062,0.2264663428068161
1772455911990990600,1.804990478515625,0.23468388617038727,-0.25316014885902405,0.26963120698928833
1772455912001008400,1.81500830078125,0.17925044894218445,-0.35131922364234924,0.2997179925441742
1772455912011026700,1.825026611328125,0.1005888357758522,-0.4014750123023987,0.3248732388019562
1772455912021044500,1.83504443359375,0.017874781042337418,-0.40304040908813477,0.33278870582580566
1772455912031062500,1.8450625,-0.0596168115735054,-0.37069499492645264,0.3339919149875641
1772455912041081600,1.85508154296875,-0.12448369711637497,-0.28062209486961365,0.32438215613365173
1772455912051099600,1.865099609375,-0.17752346396446228,-0.16337281465530396,0.3040236234664917
1772455912061117700,1.87511767578125,-0.22103020548820496,-0.04345973581075668,0.27294397354125977
1772455912071135500,1.885135498046875,-0.254438191652298,0.06217038258910179,0.23378659784793854
1772455912081153500,1.895153564453125,-0.27729663252830505,0.13643582165241241,0.18930035829544067
1772455912091171600,1.905171630859375,-0.29335635900497437,0.18402451276779175,0.1442635953426361
1772455912101189600,1.915189697265625,-0.31655675172805786,0.20494310557842255,0.10686321556568146
1772455912111208700,1.925208740234375,-0.34129202365875244,0.21463146805763245,0.06963710486888885
1772455912121226500,1.9352265625,-0.3662168085575104,0.22638505697250366,0.042395103722810745
1772455912131244500,1.94524462890625,-0.37288790941238403,0.24277113378047943,0.002384335268288851
1772455912141262600,1.9552626953125,-0.3600999414920807,0.2473355382680893,-0.0321187786757946
1772455912151280600,1.96528076171875,-0.34251269698143005,0.2240288257598877,-0.07456203550100327
1772455912161298400,1.97529833984375,-0.32258984446525574,0.17529325187206268,-0.11103828996419907
1772455912171316700,1.985316650390625,-0.3022683262825012,0.11358434706926346,-0.13873489201068878
1772455912181335800,1.995335693359375,-0.28000563383102417,0.042994603514671326,-0.1608085036277771
1772455912191353600,2.005353515625,-0.26204821467399597,-0.011477695778012276,-0.18444032967090607
1772455912201371600,2.01537158203125,-0.24478082358837128,-0.054139137268066406,-0.1959390640258789
1772455912211389400,2.025389404296875,-0.23037153482437134,-0.07649215310811996,-0.19750599563121796
1772455912221407700,2.03540771484375,-0.22043873369693756,-0.0814427062869072,-0.18013978004455566
1772455912231425500,2.045425537109375,-0.21799129247665405,-0.05262650176882744,-0.15818868577480316
1772455912241443600,2.055443603515625,-0.20461051166057587,-0.005800141952931881,-0.13742826879024506
1772455912251461600,2.065461669921875,-0.17358791828155518,0.03870220482349396,-0.13727733492851257
1772455912261480400,2.07548046875,-0.12553463876247406,0.09356065839529037,-0.14285239577293396
1772455912271498800,2.085498779296875,-0.08266880363225937,0.1411663442850113,-0.14952710270881653
1772455912281516500,2.0955166015625,-0.03590049222111702,0.17083795368671417,-0.15117347240447998
1772455912291534600,2.10553466796875,0.0020740004256367683,0.18609347939491272,-0.14493428170681
1772455912301552600,2.115552734375,0.025860290974378586,0.17366504669189453,-0.13711416721343994
1772455912311570700,2.12557080078125,0.03531104698777199,0.1359994262456894,-0.12646792829036713
1772455912321589800,2.13558984375,0.03185213357210159,0.09789970517158508,-0.10342945158481598
1772455912331607600,2.145607666015625,0.02793094888329506,0.03461248055100441,-0.07620948553085327
1772455912341625600,2.15562548828125,0.025748753920197487,-0.02393392100930214,-0.04553599655628204
1772455912351643600,2.1656435546875,0.023703500628471375,-0.07720087468624115,0.00982265267521143
1772455912361661700,2.17566162109375,0.020760443061590195,-0.12007962912321091,0.060907941311597824
1772455912371679500,2.185679443359375,0.02564302645623684,-0.1720203310251236,0.1046186238527298
1772455912381697500,2.195697509765625,0.03388524428009987,-0.22440576553344727,0.14556924998760223
1772455912391715600,2.205715576171875,0.036898188292980194,-0.2658139169216156,0.20784203708171844
1772455912401734700,2.215734619140625,0.03332928568124771,-0.3420189619064331,0.3052746057510376
1772455912411752700,2.225752685546875,0.01970277540385723,-0.42021647095680237,0.43767648935317993
1772455912421770500,2.2357705078125,0.013111451640725136,-0.48172029852867126,0.5597331523895264
1772455912431788800,2.245788818359375,0.015746045857667923,-0.5202561020851135,0.6380780935287476
1772455912441806600,2.255806640625,0.03473784774541855,-0.5271787643432617,0.6595143675804138
1772455912451824600,2.26582470703125,0.07643423229455948,-0.4909694492816925,0.6228756308555603
1772455912461843500,2.275843505859375,0.12259107828140259,-0.4122605323791504,0.5461454391479492
1772455912471861500,2.285861572265625,0.1697889268398285,-0.2939128875732422,0.4530280828475952
1772455912481879800,2.2958798828125,0.21720971167087555,-0.1628374308347702,0.3605476915836334
1772455912491897600,2.305897705078125,0.25578922033309937,-0.04241843521595001,0.2718232274055481
1772455912501915600,2.31591552734375,0.26350679993629456,0.076830193400383,0.1876652091741562
1772455912511933400,2.325933349609375,0.2455487996339798,0.19750459492206573,0.10608021914958954
1772455912521951700,2.33595166015625,0.21122385561466217,0.3014400601387024,0.020798878744244576
1772455912531969500,2.345969482421875,0.16610831022262573,0.3875018358230591,-0.06314929574728012
1772455912541988600,2.355988525390625,0.11688005179166794,0.48588326573371887,-0.10586027055978775
1772455912552006400,2.36600634765625,0.07155034691095352,0.5900576710700989,-0.11026659607887268
1772455912562024700,2.376024658203125,0.04084064066410065,0.6781715154647827,-0.10401162505149841
1772455912572042800,2.386042724609375,0.0366215743124485,0.7221672534942627,-0.09275888651609421
1772455912582060500,2.396060546875,0.06258765608072281,0.7063515186309814,-0.09616080671548843
1772455912592078600,2.40607861328125,0.09562880545854568,0.6039566993713379,-0.0997551754117012
1772455912602096600,2.4160966796875,0.1133849024772644,0.46185630559921265,-0.0917997807264328
1772455912612115700,2.42611572265625,0.10288286954164505,0.31384801864624023,-0.06531627476215363
1772455912622133500,2.436133544921875,0.07437293231487274,0.17482542991638184,-0.024561384692788124
1772455912632151600,2.446151611328125,0.032070886343717575,0.06825033575296402,0.021259330213069916
1772455912642169600,2.456169677734375,-0.015379452146589756,0.025074098259210587,0.06047091633081436
1772455912652187600,2.466187744140625,-0.06241687387228012,0.05686815828084946,0.0806470587849617
1772455912662205700,2.476205810546875,-0.10012217611074448,0.1545763462781906,0.08433207124471664
1772455912672223500,2.486223388671875,-0.12064265459775925,0.3192683160305023,0.06419039517641068
1772455912682242600,2.49624267578125,-0.11707135289907455,0.4925847053527832,0.021763840690255165
1772455912692260600,2.506260498046875,-0.09762056916952133,0.6156191825866699,-0.04635951668024063
1772455912702278700,2.516278564453125,-0.053880542516708374,0.6914351582527161,-0.12140633165836334
1772455912712296400,2.52629638671875,0.0045968638733029366,0.716712474822998,-0.18527604639530182
1772455912722314500,2.536314453125,0.08741211891174316,0.6930801272392273,-0.2295396476984024
1772455912732332800,2.546332763671875,0.18597020208835602,0.642086923122406,-0.24670088291168213
1772455912742350600,2.5563505859375,0.27767083048820496,0.5472562909126282,-0.2257189005613327
1772455912752369700,2.56636962890625,0.3584609925746918,0.4259367287158966,-0.17907916009426117
1772455912762387500,2.576387451171875,0.42070865631103516,0.2588050067424774,-0.11747678369283676
1772455912772405500,2.586405517578125,0.44225046038627625,0.07683826982975006,-0.04099506139755249
1772455912782423600,2.596423583984375,0.4204399585723877,-0.07906557619571686,0.03483125939965248
1772455912792441600,2.606441650390625,0.3502505421638489,-0.20358693599700928,0.11204294860363007
1772455912802459400,2.61645947265625,0.22785885632038116,-0.28286445140838623,0.169899582862854
1772455912812477400,2.6264775390625,0.10094502568244934,-0.3207107186317444,0.1857079267501831
1772455912822496500,2.63649658203125,-0.00210758950561285,-0.30400553345680237,0.15373241901397705
1772455912832514600,2.6465146484375,-0.06682325899600983,-0.24041882157325745,0.07867437601089478
1772455912842532400,2.656532470703125,-0.08845212310552597,-0.12646295130252838,-0.004903348162770271
1772455912852550400,2.66655029296875,-0.07429993897676468,0.0143573684617877,-0.07857946306467056
1772455912862568400,2.676568359375,-0.04956423491239548,0.15934891998767853,-0.1415102332830429
1772455912872586500,2.68658642578125,-0.030338941141963005,0.27365225553512573,-0.19227752089500427
1772455912882604300,2.696604248046875,-0.023293016478419304,0.32768911123275757,-0.2426711916923523
1772455912892622600,2.70662255859375,-0.02963908389210701,0.3434305191040039,-0.2845756709575653
1772455912902641400,2.716641357421875,-0.04124513640999794,0.34918853640556335,-0.3112344443798065
1772455912912659500,2.726659423828125,-0.06533506512641907,0.33779144287109375,-0.3377908170223236
1772455912922677500,2.736677490234375,-0.1004621610045433,0.31363338232040405,-0.3698805868625641
1772455912932695300,2.7466953125,-0.1287127286195755,0.26924946904182434,-0.40539485216140747
1772455912942713600,2.756713623046875,-0.13987669348716736,0.20477408170700073,-0.43960875272750854
1772455912952731400,2.7667314453125,-0.1276807188987732,0.1530797779560089,-0.45745253562927246
1772455912962750500,2.77675048828125,-0.08849844336509705,0.12087950110435486,-0.4473234713077545
1772455912972768500,2.7867685546875,-0.03144237771630287,0.0851050391793251,-0.4178250730037689
1772455912982786300,2.796786376953125,0.03890502080321312,0.05011828616261482,-0.3637098968029022
1772455912992804600,2.8068046875,0.08747805655002594,0.0335494764149189,-0.30058786273002625
1772455913002822400,2.816822509765625,0.12234176695346832,0.024264367297291756,-0.23630419373512268
1772455913012840400,2.82684033203125,0.1401820033788681,0.029583584517240524,-0.17970076203346252
1772455913022858500,2.8368583984375,0.1557372510433197,0.041995514184236526,-0.14418192207813263
1772455913032876500,2.84687646484375,0.1704721450805664,0.03466871380805969,-0.12192884087562561
1772455913042895400,2.856895263671875,0.1968638002872467,0.009477606974542141,-0.1078132912516594
1772455913052913400,2.866913330078125,0.21972961723804474,-0.019626518711447716,-0.0854557678103447
1772455913062931500,2.876931396484375,0.23844951391220093,-0.052419885993003845,-0.060165856033563614
1772455913072949500,2.886949462890625,0.2474118173122406,-0.06788202375173569,-0.023108098655939102
1772455913082967600,2.896967529296875,0.23777462542057037,-0.07529094070196152,0.014343668706715107
1772455913092985300,2.9069853515625,0.21977724134922028,-0.08130307495594025,0.04191198945045471
1772455913103003400,2.91700341796875,0.19526071846485138,-0.10076625645160675,0.044762901961803436
1772455913113022200,2.927022216796875,0.1668783575296402,-0.11705010384321213,0.03351230174303055
1772455913123040500,2.93704052734375,0.13280746340751648,-0.13057443499565125,0.016396433115005493
1772455913133058600,2.94705859375,0.09997459501028061,-0.11969582736492157,0.007464349735528231
1772455913143076400,2.957076416015625,0.082023024559021,-0.08918079733848572,0.009886227548122406
1772455913153094700,2.9670947265625,0.08102065324783325,-0.06554830074310303,0.020288856700062752
1772455913163112400,2.977112548828125,0.09704489260911942,-0.05237790197134018,0.0348542183637619
1772455913173130500,2.987130615234375,0.13409125804901123,-0.05133891478180885,0.05279754847288132
1772455913183149300,2.9971494140625,0.19026878476142883,-0.04517742618918419,0.08556348830461502
1772455913193167400,3.00716748046875,0.24403612315654755,-0.06491082906723022,0.12765029072761536
1772455913203185400,3.017185302734375,0.2776649296283722,-0.10019531846046448,0.17949244379997253
1772455913213203500,3.027203369140625,0.28765037655830383,-0.11054098606109619,0.2586062550544739
1772455913223221500,3.037221435546875,0.27121466398239136,-0.13005076348781586,0.33955252170562744
1772455913233239300,3.0472392578125,0.21895962953567505,-0.17086486518383026,0.40235498547554016
1772455913243257600,3.057257568359375,0.14692644774913788,-0.22822828590869904,0.45185568928718567
1772455913253276400,3.0672763671875,0.010660529136657715,-0.33122125267982483,0.47892650961875916
1772455913263294500,3.07729443359375,-0.25231650471687317,-0.42762288451194763,0.523490309715271
1772455913273312300,3.087312255859375,-0.35553088784217834,-0.41900402307510376,0.6076546311378479
1772455913283330600,3.09733056640625,-0.3935648202896118,-0.4632047712802887,0.6008276343345642
1772455913293348400,3.107348388671875,-0.43283215165138245,-0.5339008569717407,0.5189140439033508
1772455913303366400,3.117366455078125,-0.4376910924911499,-0.557403028011322,0.4026085138320923
1772455913313384400,3.127384521484375,-0.40216735005378723,-0.5382865071296692,0.280569851398468
1772455913323403300,3.1374033203125,-0.3464513421058655,-0.4666301906108856,0.16751547157764435
1772455913333421600,3.147421630859375,-0.29133331775665283,-0.37002474069595337,0.0681583508849144
1772455913343439400,3.157439453125,-0.23897212743759155,-0.28875651955604553,-0.004777114372700453
1772455913353457400,3.16745751953125,-0.20269933342933655,-0.23923026025295258,-0.05117683857679367
1772455913363475200,3.17747509765625,-0.18484577536582947,-0.18327830731868744,-0.0817754864692688
1772455913373493500,3.187493408203125,-0.2073458582162857,-0.11731141060590744,-0.11619935184717178
1772455913383511600,3.197511474609375,-0.2470213621854782,-0.049930769950151443,-0.15023721754550934
1772455913393530400,3.2075302734375,-0.26866358518600464,0.01558623369783163,-0.1792607456445694
1772455913403548400,3.21754833984375,-0.2659008204936981,0.09125542640686035,-0.19946721196174622
1772455913413566500,3.22756640625,-0.23486651480197906,0.20090189576148987,-0.19242613017559052
1772455913423584500,3.23758447265625,-0.1835053265094757,0.2955671548843384,-0.17612197995185852
1772455913433602300,3.247602294921875,-0.12988144159317017,0.33787935972213745,-0.13068874180316925
1772455913443620400,3.257620361328125,-0.08633316308259964,0.3511429727077484,-0.06178104877471924
1772455913453638400,3.267638427734375,-0.05650388076901436,0.3314030170440674,0.020550237968564034
1772455913463656400,3.277656494140625,-0.0373552180826664,0.2796545922756195,0.10279664397239685
1772455913473675500,3.287675537109375,-0.031162109225988388,0.1740827113389969,0.18674775958061218
1772455913483693300,3.297693359375,-0.0483887679874897,0.012872517108917236,0.2625066936016083
1772455913493711400,3.30771142578125,-0.10331696271896362,-0.1485385298728943,0.3255118727684021
1772455913503729400,3.3177294921875,-0.17892836034297943,-0.28602156043052673,0.3676247000694275
1772455913513747500,3.32774755859375,-0.24047139286994934,-0.3671712279319763,0.37466493248939514
1772455913523765200,3.33776513671875,-0.28047552704811096,-0.39918774366378784,0.3503449559211731
1772455913533783600,3.347783447265625,-0.30558037757873535,-0.370683878660202,0.3177133798599243
1772455913543802600,3.357802734375,-0.31691426038742065,-0.27422499656677246,0.28915098309516907
1772455913553820400,3.3678203125,-0.3209223747253418,-0.1390565186738968,0.27910012006759644
1772455913563838500,3.37783837890625,-0.3212962746620178,-0.008361086249351501,0.2739301323890686
1772455913573856300,3.387856201171875,-0.33370518684387207,0.07857460528612137,0.2579537034034729
1772455913583874600,3.39787451171875,-0.36076873540878296,0.10400006920099258,0.2143992781639099
1772455913593892400,3.407892333984375,-0.41426703333854675,0.06910302489995956,0.1452816277742386
1772455913603910400,3.417910400390625,-0.46173813939094543,-0.009599238634109497,0.061533745378255844
1772455913613929500,3.427929443359375,-0.48275837302207947,-0.10584929585456848,-0.015064321458339691
1772455913623947300,3.437947265625,-0.4794650971889496,-0.18383969366550446,-0.061597470194101334
1772455913633965600,3.447965576171875,-0.44911718368530273,-0.21320997178554535,-0.0768924281001091
1772455913643983400,3.4579833984375,-0.3757005035877228,-0.1978248953819275,-0.058025795966386795
1772455913654001400,3.46800146484375,-0.27057355642318726,-0.15954084694385529,-0.009383498691022396
1772455913664019500,3.47801953125,-0.16071203351020813,-0.12393171340227127,0.05507005751132965
1772455913674037500,3.48803759765625,-0.07957359403371811,-0.09035205841064453,0.12978573143482208
1772455913684056600,3.498056640625,-0.03649616613984108,-0.07655901461839676,0.1860002726316452
1772455913694074400,3.508074462890625,-0.0197965856641531,-0.07448729127645493,0.19758781790733337
1772455913704092400,3.518092529296875,-0.012483546510338783,-0.061962444335222244,0.16471296548843384
1772455913714110500,3.5281103515625,-0.010115272365510464,-0.02520447038114071,0.09994730353355408
1772455913724128500,3.53812841796875,-0.004784422926604748,0.024343108758330345,0.02013050764799118
1772455913734146300,3.548146240234375,0.011415676213800907,0.09057588130235672,-0.04218915104866028
1772455913744164400,3.558164306640625,0.03232814744114876,0.17464175820350647,-0.06850384175777435
1772455913754183400,3.568183349609375,0.06897880136966705,0.2856791019439697,-0.056680332869291306
1772455913764201500,3.578201416015625,0.10971744358539581,0.3816916346549988,-0.014359774999320507
1772455913774219500,3.588219482421875,0.14643391966819763,0.41934388875961304,0.03290567547082901
1772455913784237300,3.5982373046875,0.17776840925216675,0.3966428339481354,0.07159022241830826
1772455913794255600,3.608255615234375,0.20621272921562195,0.37292909622192383,0.10313791781663895
1772455913804274000,3.61827392578125,0.2387176752090454,0.3769043982028961,0.11686571687459946
1772455913814292000,3.6282919921875,0.27867817878723145,0.422899454832077,0.12257132679224014
1772455913824310800,3.638310791015625,0.30136778950691223,0.4271743595600128,0.11021824926137924
1772455913834328800,3.648328857421875,0.2832307815551758,0.12513883411884308,0.044201962649822235
1772455913844347000,3.658346923828125,0.21918204426765442,-0.1802956461906433,-0.015770290046930313
1772455913854365000,3.668364990234375,0.10492614656686783,-0.3165649473667145,-0.04413817450404167
1772455913864382700,3.6783828125,-0.020412329584360123,-0.32944560050964355,-0.059507012367248535
1772455913874400800,3.68840087890625,-0.1189081147313118,-0.2477005273103714,-0.07336167991161346
1772455913884419000,3.698419189453125,-0.1911199986934662,-0.1405964493751526,-0.1045243963599205
1772455913894436900,3.708436767578125,-0.25670111179351807,-0.023550869897007942,-0.1562795341014862
1772455913904456000,3.7184560546875,-0.2991151511669159,0.09405218809843063,-0.22075200080871582
1772455913914473700,3.7284736328125,-0.32649219036102295,0.17341679334640503,-0.2729049324989319
1772455913924491800,3.73849169921875,-0.321821004152298,0.162942036986351,-0.30517473816871643
1772455913934509800,3.748509765625,-0.2801375985145569,0.13807588815689087,-0.3162955343723297
1772455913944528000,3.75852783203125,-0.21826544404029846,0.12272115796804428,-0.2996137738227844
1772455913954545700,3.768545654296875,-0.15374904870986938,0.1261381357908249,-0.2612064480781555
1772455913964564000,3.77856396484375,-0.10028475522994995,0.13141492009162903,-0.1983606368303299
1772455913974582800,3.788582763671875,-0.06352929770946503,0.1246895045042038,-0.10257968306541443
1772455913984600800,3.798600830078125,-0.041446369141340256,0.11351647973060608,0.004663683474063873
1772455913994619000,3.808618896484375,-0.03324997425079346,0.10030089318752289,0.11244241148233414
1772455914004636700,3.81863671875,-0.03168430179357529,0.08880961686372757,0.2022940069437027
1772455914014655000,3.828655029296875,-0.043905530124902725,0.0663183405995369,0.2594698667526245
1772455914024672800,3.8386728515625,-0.05999501794576645,0.05557168647646904,0.27721211314201355
1772455914034690800,3.84869091796875,-0.07342709600925446,0.04911099374294281,0.26820141077041626
1772455914044710000,3.8587099609375,-0.10237379372119904,0.059444595128297806,0.225758895277977
1772455914054727700,3.868727783203125,-0.14384131133556366,0.09209810197353363,0.15890301764011383
1772455914064746000,3.87874609375,-0.17467299103736877,0.14852941036224365,0.06834143400192261
1772455914074763800,3.888763671875,-0.19636614620685577,0.1949516385793686,-0.041526325047016144
1772455914084781800,3.89878173828125,-0.22129680216312408,0.2010585367679596,-0.15666835010051727
1772455914094800000,3.9087998046875,-0.2671600878238678,0.19265758991241455,-0.2679506242275238
1772455914104818000,3.91881787109375,-0.32266223430633545,0.14428313076496124,-0.37995198369026184
1772455914114837000,3.9288369140625,-0.38847675919532776,0.0598876029253006,-0.4966982305049896
1772455914124854800,3.938854736328125,-0.46506500244140625,-0.014202598482370377,-0.6081733107566833
1772455914134872800,3.948872802734375,-0.527427077293396,-0.0233411006629467,-0.6816996932029724
1772455914144891000,3.958890869140625,-0.5626750588417053,0.028881091624498367,-0.70452481508255
1772455914154909000,3.968908935546875,-0.5710412263870239,0.13254259526729584,-0.6721301078796387
1772455914164926700,3.9789267578125,-0.5365884304046631,0.27046263217926025,-0.6061736941337585
1772455914174944800,3.98894482421875,-0.4589731693267822,0.38239577412605286,-0.5334010720252991
1772455914184963800,3.9989638671875,-0.3677934408187866,0.3999614417552948,-0.4688076972961426
1772455914194982000,4.00898193359375,-0.28074556589126587,0.2940649390220642,-0.4069802761077881
1772455914205000000,4.019,-0.20978032052516937,0.05105600133538246,-0.36008334159851074
1772455914215017700,4.029017822265625,-0.15197230875492096,-0.26259860396385193,-0.31993263959884644
1772455914225036000,4.0390361328125,-0.0792618840932846,-0.5368565320968628,-0.2691038250923157
1772455914235053800,4.0490537109375,0.01396062783896923,-0.6825017333030701,-0.19908489286899567
1772455914245072000,4.05907177734375,0.1162491887807846,-0.6624130010604858,-0.08437509834766388
1772455914255091000,4.069091064453125,0.22843173146247864,-0.5060872435569763,0.07580230385065079
1772455914265108700,4.079108642578125,0.31877946853637695,-0.3068646788597107,0.24357852339744568
1772455914275127000,4.089126953125,0.3461383879184723,-0.137728750705719,0.3604520559310913
1772455914285144800,4.099144775390625,0.30543622374534607,-0.05884379521012306,0.3849225342273712
1772455914295163000,4.109162841796875,0.22198915481567383,-0.05137220397591591,0.32120293378829956
1772455914305180700,4.1191806640625,0.12951621413230896,-0.03759301081299782,0.19360660016536713
1772455914315199000,4.129198974609375,0.04141669720411301,0.025328123942017555,0.040582235902547836
1772455914325216800,4.139216796875,-0.011572482995688915,0.1285562366247177,-0.11750780045986176
1772455914335235800,4.14923583984375,-0.01059760618954897,0.2424943894147873,-0.2737257182598114
1772455914345254000,4.15925390625,0.03214000537991524,0.3121972978115082,-0.4122298061847687
1772455914355272000,4.16927197265625,0.058094870299100876,0.32327452301979065,-0.4981997311115265
1772455914365290000,4.1792900390625,0.05395738407969475,0.30082061886787415,-0.5156708359718323
1772455914375307800,4.189307861328125,0.024982331320643425,0.2586769759654999,-0.468680202960968
1772455914385325800,4.199325927734375,-0.017973657697439194,0.21687385439872742,-0.3947415351867676
1772455914395344000,4.20934375,-0.04440171271562576,0.1865185648202896,-0.3238174021244049
1772455914405363000,4.219363037109375,-0.045435551553964615,0.15993276238441467,-0.28126460313796997
1772455914415381000,4.229381103515625,-0.027413640171289444,0.1368148773908615,-0.2799515426158905
1772455914425398800,4.239398681640625,-0.00033861224073916674,0.09570366144180298,-0.29053840041160583
1772455914435416800,4.249416748046875,0.0349278524518013,0.03927936404943466,-0.3094021677970886
1772455914445435000,4.259434814453125,0.07472453266382217,-0.019048122689127922,-0.32002630829811096
1772455914455453000,4.269452880859375,0.10261718928813934,-0.06648586690425873,-0.3257155418395996
1772455914465470700,4.279470703125,0.10732166469097137,-0.1102738231420517,-0.30922096967697144
1772455914475489800,4.28948974609375,0.08274498581886292,-0.15772821009159088,-0.285790354013443
1772455914485507800,4.2995078125,0.0515361987054348,-0.2013329416513443,-0.2617204189300537
1772455914495526000,4.30952587890625,0.03286061808466911,-0.225489541888237,-0.24022915959358215
1772455914505544000,4.3195439453125,0.04949579015374184,-0.2073526233434677,-0.22170233726501465
1772455914515561700,4.329561767578125,0.07657741010189056,-0.16611427068710327,-0.20357951521873474
1772455914525580000,4.339580078125,0.10396482050418854,-0.12606912851333618,-0.17782407999038696
1772455914535597800,4.349597900390625,0.11335912346839905,-0.09855680912733078,-0.155238077044487
1772455914545617000,4.359616943359375,0.11107679456472397,-0.07592659443616867,-0.14281682670116425
1772455914555634700,4.369634765625,0.0935245007276535,-0.05449329689145088,-0.1337735503911972
1772455914565652700,4.37965283203125,0.07076752185821533,-0.0383169911801815,-0.12125855684280396
1772455914575671000,4.389671142578125,0.033788394182920456,-0.028422724455595016,-0.09773484617471695
1772455914585688800,4.399688720703125,0.009065737947821617,-0.016319723799824715,-0.058162130415439606
1772455914595707000,4.409706787109375,-0.03401989862322807,0.009141300804913044,0.0022514669690281153
1772455914605725000,4.419724853515625,-0.08577443659305573,0.017185911536216736,0.051248569041490555
1772455914615744000,4.429743896484375,-0.12662473320960999,0.010096397250890732,0.06947526335716248
1772455914625761800,4.43976171875,-0.14736436307430267,-0.011819553561508656,0.057038564234972
1772455914635779800,4.44977978515625,-0.1411285698413849,-0.033687036484479904,0.012990680523216724
1772455914645797600,4.459797607421875,-0.11845841258764267,-0.06405825912952423,-0.05380965396761894
1772455914655816000,4.46981591796875,-0.08131776005029678,-0.11336815357208252,-0.12160899490118027
1772455914665834000,4.479833984375,-0.047146737575531006,-0.1663203239440918,-0.1720961481332779
1772455914675851800,4.489851806640625,-0.034928835928440094,-0.20593611896038055,-0.1898103803396225
1772455914685870800,4.499870849609375,-0.02959531918168068,-0.23001748323440552,-0.17933723330497742
1772455914695888600,4.509888671875,-0.02360718324780464,-0.21190981566905975,-0.15734758973121643
1772455914705907000,4.519906982421875,-0.006618611980229616,-0.17551027238368988,-0.13376475870609283
1772455914715924700,4.5299248046875,0.01713704876601696,-0.1541406512260437,-0.11984015256166458
1772455914725942800,4.53994287109375,0.02416992373764515,-0.13844983279705048,-0.12165935337543488
1772455914735961000,4.549961181640625,-0.0036468966864049435,-0.12598200142383575,-0.15695275366306305
1772455914745979000,4.559978759765625,-0.0616377592086792,-0.10907917469739914,-0.22396613657474518
1772455914755997000,4.569996826171875,-0.12711700797080994,-0.05839722603559494,-0.3084198534488678
1772455914766015700,4.580015625,-0.17952801287174225,0.015576866455376148,-0.4001908004283905
1772455914776033800,4.59003369140625,-0.21343177556991577,0.09334331005811691,-0.4647989571094513
1772455914786051800,4.6000517578125,-0.23164112865924835,0.1692228764295578,-0.48288339376449585
1772455914796070000,4.61006982421875,-0.2366890162229538,0.23351581394672394,-0.45032814145088196
1772455914806088400,4.62008837890625,-0.2226240634918213,0.2650953233242035,-0.38307082653045654
1772455914816106200,4.630106201171875,-0.1965683549642563,0.25789111852645874,-0.29225751757621765
1772455914826124500,4.64012451171875,-0.16330493986606598,0.20568488538265228,-0.18946191668510437
1772455914836143600,4.6501435546875,-0.14061343669891357,0.13608543574810028,-0.08553837984800339
1772455914846161400,4.660161376953125,-0.13994604349136353,0.07883306592702866,0.013250247575342655
1772455914856179500,4.670179443359375,-0.1598469614982605,0.023302264511585236,0.08746500313282013
1772455914866197200,4.680197265625,-0.19256176054477692,-0.003773562842980027,0.12343712151050568
1772455914876215600,4.690215576171875,-0.23450075089931488,-0.0077849566005170345,0.10746635496616364
1772455914886233300,4.7002333984375,-0.2818698585033417,0.010067010298371315,0.037907782942056656
1772455914896251400,4.71025146484375,-0.3050024211406708,0.04125085100531578,-0.06790438294410706
1772455914906270500,4.7202705078125,-0.31457462906837463,0.07249505817890167,-0.17077404260635376
1772455914916288300,4.730288330078125,-0.294353723526001,0.11031536012887955,-0.23919691145420074
1772455914926306600,4.740306640625,-0.2529870867729187,0.16749608516693115,-0.24205821752548218
1772455914936324400,4.750324462890625,-0.17721565067768097,0.21830201148986816,-0.19174844026565552
1772455914946342400,4.76034228515625,-0.06582733988761902,0.23829036951065063,-0.0958232432603836
1772455914956360400,4.7703603515625,0.050198618322610855,0.21916119754314423,0.03471259027719498
1772455914966378500,4.78037841796875,0.11118660122156143,0.1462041586637497,0.14283853769302368
1772455914976397600,4.7903974609375,0.11460886895656586,0.020109212026000023,0.21487952768802643
1772455914986415400,4.800415283203125,0.0918593481183052,-0.11314471065998077,0.25014033913612366
1772455914996433400,4.810433349609375,0.05493025481700897,-0.22613824903964996,0.26034384965896606
1772455915006451500,4.820451416015625,0.009554252028465271,-0.3170313835144043,0.26251378655433655
1772455915016469500,4.830469482421875,-0.04859967157244682,-0.378378689289093,0.2783534824848175
1772455915026487300,4.8404873046875,-0.14510837197303772,-0.4086689352989197,0.27593880891799927
1772455915036505300,4.85050537109375,-0.2674042880535126,-0.4304710626602173,0.23433054983615875
1772455915046524400,4.8605244140625,-0.3787020444869995,-0.4473206102848053,0.12796282768249512
1772455915056542500,4.87054248046875,-0.444026380777359,-0.4015848636627197,-0.007825459353625774
1772455915066560500,4.880560546875,-0.4736878573894501,-0.2754426598548889,-0.14084555208683014
1772455915076578300,4.890578369140625,-0.4941427707672119,-0.10780485719442368,-0.2584010064601898
1772455915086596600,4.9005966796875,-0.4861636757850647,0.049740031361579895,-0.34654712677001953
1772455915096614400,4.910614501953125,-0.44997069239616394,0.18891417980194092,-0.39599499106407166
1772455915106632400,4.920632568359375,-0.38674086332321167,0.2688683867454529,-0.4065224826335907
1772455915116650200,4.930650146484375,-0.3079788088798523,0.28791284561157227,-0.3738210201263428
1772455915126669300,4.94066943359375,-0.2218036949634552,0.24744774401187897,-0.32106247544288635
1772455915136687600,4.9506875,-0.13196691870689392,0.14837375283241272,-0.24037736654281616
1772455915146705400,4.960705322265625,-0.0453965961933136,0.015601325780153275,-0.14018072187900543
1772455915156723500,4.970723388671875,0.01985100656747818,-0.13407884538173676,-0.028628209605813026
1772455915166741200,4.9807412109375,0.06393937766551971,-0.27435049414634705,0.08771917223930359
1772455915176759600,4.990759521484375,0.08781736344099045,-0.36011266708374023,0.1967100203037262
1772455915186777300,5.00077734375,0.09609340131282806,-0.386614054441452,0.2737827003002167
1772455915196796400,5.01079638671875,0.09333809465169907,-0.3611862063407898,0.31420469284057617
1772455915206814500,5.020814453125,0.07919670641422272,-0.3142509162425995,0.30803123116493225
1772455915216832500,5.03083251953125,0.062338266521692276,-0.2640271782875061,0.25416919589042664
1772455915226850600,5.0408505859375,0.05460977181792259,-0.2085963934659958,0.16822713613510132
1772455915236868400,5.050868408203125,0.05438840389251709,-0.14733342826366425,0.06677103787660599
1772455915246886400,5.060886474609375,0.06083139032125473,-0.0796545222401619,-0.028361601755023003
1772455915256904400,5.070904541015625,0.07574310898780823,-0.02602197229862213,-0.105806365609169
1772455915266923500,5.080923583984375,0.11037405580282211,0.015712158754467964,-0.15669883787631989
1772455915276941600,5.090941650390625,0.1692516803741455,0.060947779566049576,-0.17545387148857117
1772455915286959400,5.10095947265625,0.24098631739616394,0.08143015205860138,-0.15013732016086578
1772455915296977400,5.110977294921875,0.28287965059280396,0.08623138815164566,-0.08529651910066605
1772455915306995500,5.120995361328125,0.29920244216918945,0.07131342589855194,-0.0007837709272280335
1772455915317013500,5.131013427734375,0.29550331830978394,0.025114990770816803,0.08007311820983887
1772455915327031300,5.14103125,0.2802729904651642,-0.013760769739747047,0.1440209299325943
1772455915337050400,5.15105029296875,0.25002047419548035,-0.019884850829839706,0.18872950971126556
1772455915347068700,5.161068603515625,0.20876650512218475,-0.012941190972924232,0.20085327327251434
1772455915357086500,5.17108642578125,0.17143167555332184,-0.007952867075800896,0.17777922749519348
1772455915367104500,5.1811044921875,0.13169199228286743,0.011318832635879517,0.11927492171525955
1772455915377122300,5.191122314453125,0.10632805526256561,0.03751581162214279,0.03846129775047302
1772455915387140600,5.201140625,0.1065344512462616,0.060041893273591995,-0.05297274515032768
1772455915397158400,5.211158447265625,0.11924653500318527,0.07046128809452057,-0.12551812827587128
1772455915407176400,5.221176513671875,0.15712174773216248,0.07363417744636536,-0.17455145716667175
1772455915417195300,5.2311953125,0.21069614589214325,0.06677818298339844,-0.19240231812000275
1772455915427213300,5.24121337890625,0.2575736343860626,0.03847464546561241,-0.17300358414649963
1772455915437231600,5.251231689453125,0.28713861107826233,0.003007595194503665,-0.12626893818378448
1772455915447249400,5.26124951171875,0.30284780263900757,-0.03193041309714317,-0.0676993727684021
1772455915457267500,5.271267333984375,0.3187420666217804,-0.056069307029247284,0.008286206051707268
1772455915467285500,5.281285400390625,0.33564648032188416,-0.05224394053220749,0.07956065237522125
1772455915477303600,5.291303466796875,0.3569209575653076,-0.04790973663330078,0.1376601606607437
1772455915487322400,5.301322265625,0.38064199686050415,-0.06521175801753998,0.17329351603984833
1772455915497340400,5.31134033203125,0.3929784297943115,-0.10646998882293701,0.19054478406906128
1772455915507358200,5.321358154296875,0.38154760003089905,-0.15700960159301758,0.1965629905462265
1772455915517376500,5.33137646484375,0.355091392993927,-0.19641688466072083,0.19318513572216034
1772455915527394600,5.34139453125,0.32732874155044556,-0.2136659026145935,0.18556156754493713
1772455915537412400,5.351412353515625,0.30894699692726135,-0.2054891139268875,0.1744024008512497
1772455915547430400,5.361430419921875,0.3125388026237488,-0.1586955040693283,0.16699109971523285
1772455915557449200,5.37144921875,0.332637757062912,-0.05844931676983833,0.16691850125789642
1772455915567467500,5.381467529296875,0.3840053379535675,0.044980134814977646,0.16199138760566711
1772455915577485300,5.3914853515625,0.4461396634578705,0.12647239863872528,0.16397427022457123
1772455915587503400,5.40150341796875,0.48188647627830505,0.15987297892570496,0.18268351256847382
1772455915597521700,5.411521728515625,0.4894682765007019,0.12928332388401031,0.21634545922279358
1772455915607539500,5.42153955078125,0.47484058141708374,0.057205136865377426,0.2437288910150528
1772455915617557500,5.4315576171875,0.4218052923679352,-0.007657703943550587,0.25537022948265076
1772455915627575300,5.4415751953125,0.3164370656013489,-0.0463947132229805,0.2237774133682251
1772455915637594400,5.451594482421875,0.1874018907546997,-0.04269056394696236,0.13882671296596527
1772455915647612400,5.4616123046875,0.0757557824254036,0.0013650411274284124,0.01834237016737461
1772455915657630500,5.47163037109375,0.01827230118215084,0.07489505410194397,-0.12228899449110031
1772455915667648300,5.481648193359375,0.018235551193356514,0.1475982815027237,-0.2505873143672943
1772455915677666300,5.491666259765625,0.0624714232981205,0.188227117061615,-0.33253851532936096
1772455915687684600,5.5016845703125,0.11938957124948502,0.18575383722782135,-0.35555246472358704
1772455915697702400,5.511702392578125,0.18253159523010254,0.16277161240577698,-0.31368809938430786
1772455915707721500,5.521721435546875,0.2571123540401459,0.14026017487049103,-0.23409289121627808
1772455915717739300,5.5317392578125,0.322180837392807,0.12689270079135895,-0.14291851222515106
1772455915727757600,5.541757568359375,0.38265830278396606,0.08247090876102448,-0.0638045147061348
1772455915737775400,5.551775390625,0.4375495910644531,-0.007099768612533808,0.01657305657863617
1772455915747793400,5.56179345703125,0.48046669363975525,-0.08616343140602112,0.1298881620168686
1772455915757811500,5.5718115234375,0.47792187333106995,-0.06223310902714729,0.27390411496162415
1772455915767829500,5.58182958984375,0.4288818836212158,0.007906298153102398,0.41210219264030457
1772455915777848600,5.5918486328125,0.33480995893478394,0.07993597537279129,0.49479421973228455
1772455915787866400,5.601866455078125,0.2157229781150818,0.12421716004610062,0.5031253695487976
1772455915797883400,5.61188330078125,0.0946534126996994,0.13596825301647186,0.44197654724121094
1772455915807901200,5.621901123046875,-0.005173847544938326,0.16343744099140167,0.33306366205215454
1772455915817919200,5.631919189453125,-0.08089442551136017,0.23228034377098083,0.22213521599769592
1772455915827937000,5.64193701171875,-0.13276347517967224,0.3263077735900879,0.11186809837818146
1772455915837955300,5.651955322265625,-0.17417137324810028,0.4275670051574707,0.01217745989561081
1772455915847974400,5.661974365234375,-0.20208503305912018,0.5279119610786438,-0.08237168192863464
1772455915857992200,5.6719921875,-0.21157191693782806,0.6043068766593933,-0.16999270021915436
1772455915868010200,5.68201025390625,-0.19001522660255432,0.6158921718597412,-0.2597718834877014
1772455915878028000,5.692028076171875,-0.13663822412490845,0.5401607751846313,-0.3399687111377716
1772455915888046300,5.70204638671875,-0.06484179198741913,0.3883454203605652,-0.3915799856185913
1772455915898064100,5.712064208984375,0.033907148987054825,0.18286657333374023,-0.3926455080509186
1772455915908082200,5.722082275390625,0.13951560854911804,-0.06176607310771942,-0.32671868801116943
1772455915918101200,5.732101318359375,0.21180425584316254,-0.2939285635948181,-0.19651836156845093
1772455915928119300,5.742119384765625,0.21950718760490417,-0.4660577178001404,-0.015317140147089958
1772455915938137300,5.752137451171875,0.17145460844039917,-0.5496774315834045,0.16425056755542755
1772455915948155100,5.762155029296875,0.09423598647117615,-0.5575764179229736,0.29494866728782654
1772455915958173200,5.772173095703125,0.02228717692196369,-0.5328791737556458,0.34951862692832947
1772455915968191200,5.782191162109375,-0.02424783445894718,-0.48040080070495605,0.31620141863822937
1772455915978209300,5.792209228515625,-0.05032917857170105,-0.3814971148967743,0.23276971280574799
1772455915988227000,5.80222705078125,-0.07043790817260742,-0.26476171612739563,0.12416733801364899
1772455915998246100,5.81224609375,-0.08592646569013596,-0.19094696640968323,0.024718811735510826
1772455916008264200,5.82226416015625,-0.09690055251121521,-0.15192340314388275,-0.05986851081252098
1772455916018282200,5.8322822265625,-0.09803270548582077,-0.12711426615715027,-0.11713085323572159
1772455916028300300,5.84230029296875,-0.08850657194852829,-0.11300937831401825,-0.15158496797084808
1772455916038318000,5.852318115234375,-0.06825651973485947,-0.10589548945426941,-0.1551029235124588
1772455916048336400,5.86233642578125,-0.03271370381116867,-0.10208690166473389,-0.1425194889307022
1772455916058354200,5.872354248046875,0.012932006269693375,-0.10679688304662704,-0.11580396443605423
1772455916068373200,5.882373291015625,0.05607122182846069,-0.14305076003074646,-0.07973810285329819
1772455916078391300,5.892391357421875,0.08134616911411285,-0.18468569219112396,-0.03191737085580826
1772455916088409000,5.9024091796875,0.08343461900949478,-0.21195539832115173,0.00805081706494093
1772455916098427400,5.912427490234375,0.06829426437616348,-0.20768852531909943,0.03509369492530823
1772455916108445200,5.922445068359375,0.03916540369391441,-0.16317510604858398,0.058775320649147034
1772455916118463200,5.932463134765625,0.00013118551578372717,-0.09082075953483582,0.055656760931015015
1772455916128481000,5.94248095703125,-0.038262542337179184,-0.01024841982871294,0.021420225501060486
1772455916138499300,5.952499267578125,-0.05608755722641945,0.050401873886585236,-0.027314240112900734
1772455916148518400,5.962518310546875,-0.050591327250003815,0.09219592064619064,-0.0801529586315155
1772455916158536200,5.9725361328125,-0.020874744281172752,0.10530564188957214,-0.11521971970796585
1772455916168554200,5.98255419921875,0.020510511472821236,0.07552963495254517,-0.11935614049434662
1772455916178572300,5.992572265625,0.06269536912441254,0.02426144666969776,-0.07387729734182358
1772455916188590300,6.00259033203125,0.09693510085344315,-0.03759446367621422,-0.006249784026294947
1772455916198608100,6.012608154296875,0.10758549720048904,-0.11060348153114319,0.07851167023181915
1772455916208626200,6.022626220703125,0.0852985680103302,-0.187448188662529,0.15714895725250244
1772455916218645200,6.032645263671875,0.033932432532310486,-0.2463223785161972,0.22298845648765564
1772455916228663300,6.042663330078125,-0.03635957092046738,-0.2616480588912964,0.25290295481681824
1772455916238681300,6.052681396484375,-0.10341931879520416,-0.248096764087677,0.23703908920288086
1772455916248699100,6.06269921875,-0.15565243363380432,-0.21505571901798248,0.1777464747428894
1772455916258717200,6.07271728515625,-0.1985614001750946,-0.16426913440227509,0.09806627035140991
1772455916268735200,6.0827353515625,-0.21877986192703247,-0.10708042234182358,-0.001181222964078188
1772455916278753300,6.092753173828125,-0.2110077142715454,-0.062374163419008255,-0.0884571298956871
1772455916288772000,6.102772216796875,-0.1745983064174652,-0.03245727717876434,-0.1365993618965149
1772455916298790100,6.1127900390625,-0.13132384419441223,-0.022247470915317535,-0.12490633875131607
1772455916308808400,6.122808349609375,-0.08411478996276855,-0.026050997897982597,-0.06268824636936188
1772455916318826200,6.132826171875,-0.05488123744726181,-0.057192184031009674,0.0240345261991024
1772455916328844300,6.14284423828125,-0.05445060506463051,-0.12203030288219452,0.10031172633171082
1772455916338862000,6.152862060546875,-0.10906562209129333,-0.21687661111354828,0.15015749633312225
1772455916348880400,6.16288037109375,-0.19592595100402832,-0.31613048911094666,0.1741323471069336
1772455916358898200,6.172898193359375,-0.298703134059906,-0.3808232843875885,0.17695873975753784
1772455916368917200,6.182917236328125,-0.39650824666023254,-0.3992480933666229,0.1472056359052658
1772455916378935300,6.192935302734375,-0.47956937551498413,-0.36582303047180176,0.08724797517061234
1772455916388953000,6.202953125,-0.5489497780799866,-0.29719629883766174,0.007070315070450306
1772455916398971400,6.212971435546875,-0.6200197339057922,-0.19700445234775543,-0.06909236311912537
1772455916408989200,6.2229892578125,-0.6837515830993652,-0.09156405180692673,-0.12472686171531677
1772455916419007200,6.23300732421875,-0.7507672905921936,0.01248584222048521,-0.15565741062164307
1772455916429025300,6.243025390625,-0.8231650590896606,0.09161687642335892,-0.15461505949497223
1772455916439044400,6.25304443359375,-0.915449857711792,0.1468982696533203,-0.1325954794883728
1772455916449062100,6.263062255859375,-1.0391830205917358,0.16578035056591034,-0.12615036964416504
1772455916459080200,6.273080078125,-1.1615312099456787,0.1939907968044281,-0.13467451930046082
1772455916469098200,6.28309814453125,-1.2580007314682007,0.257211297750473,-0.17028552293777466
1772455916479116300,6.2931162109375,-1.321581244468689,0.37039950489997864,-0.2047908753156662
1772455916489134300,6.30313427734375,-1.3479270935058594,0.536289393901825,-0.22989648580551147
1772455916499152100,6.313152099609375,-1.3080284595489502,0.7277264595031738,-0.25156936049461365
1772455916509171200,6.323171142578125,-1.1908775568008423,0.8851139545440674,-0.2797815501689911
1772455916519189000,6.33318896484375,-0.9958019852638245,0.9445207715034485,-0.29742756485939026
1772455916529207300,6.343207275390625,-0.760487973690033,0.8886473774909973,-0.2763172388076782
1772455916539225300,6.353225341796875,-0.5036280155181885,0.7132439017295837,-0.2034141570329666
1772455916549243100,6.3632431640625,-0.215820774435997,0.43126946687698364,-0.05671126767992973
1772455916559261400,6.373261474609375,0.08201302587985992,0.13738101720809937,0.16121959686279297
1772455916569279200,6.383279296875,0.3443218767642975,-0.11547893285751343,0.42055264115333557
1772455916579298300,6.39329833984375,0.5235595703125,-0.3282267153263092,0.6783265471458435
1772455916589316000,6.403316162109375,0.6093609929084778,-0.5044786930084229,0.8664911389350891
1772455916599334100,6.413334228515625,0.6279234886169434,-0.6460329294204712,0.9674931764602661
1772455916609352200,6.423352294921875,0.59231036901474,-0.7417160272598267,0.962047278881073
1772455916619370200,6.433370361328125,0.5202003717422485,-0.7569990158081055,0.8853902816772461
1772455916629388300,6.44338818359375,0.4292909801006317,-0.7066487669944763,0.7518457770347595
1772455916639406000,6.453406005859375,0.3183056712150574,-0.5861886143684387,0.5938687324523926
1772455916649424400,6.46342431640625,0.20727209746837616,-0.3922825753688812,0.42573082447052
1772455916659443200,6.473443115234375,0.10586850345134735,-0.14747747778892517,0.2670269310474396
1772455916669461200,6.483461181640625,0.009196554310619831,0.11248432099819183,0.1243765726685524
1772455916679479000,6.49347900390625,-0.06268903613090515,0.32384198904037476,0.027733175083994865
1772455916689497300,6.503497314453125,-0.11935870349407196,0.47455400228500366,-0.02073662355542183
1772455916699515100,6.51351513671875,-0.15138497948646545,0.5432869791984558,-0.014371017925441265
1772455916709533200,6.523533203125,-0.1597486436367035,0.536162257194519,0.022867964580655098
1772455916719551200,6.53355126953125,-0.1487315446138382,0.46191537380218506,0.08069294691085815
1772455916729570000,6.543570068359375,-0.1265745759010315,0.34274715185165405,0.14830714464187622
1772455916739588400,6.55358837890625,-0.11242157220840454,0.20178483426570892,0.2047354131937027
1772455916749606100,6.563606201171875,-0.08354146033525467,0.054225724190473557,0.24492570757865906
1772455916759624200,6.573624267578125,-0.041097067296504974,-0.061158113181591034,0.2663641571998596
1772455916769642200,6.583642333984375,0.005795870441943407,-0.12670063972473145,0.273095041513443
1772455916779660300,6.593660400390625,0.048103004693984985,-0.16899682581424713,0.2716562747955322
1772455916789678300,6.60367822265625,0.09086112678050995,-0.1808502972126007,0.2759021520614624
1772455916799698000,6.613697998046875,0.1324806809425354,-0.17081274092197418,0.294260710477829
1772455916809716000,6.623716064453125,0.1703348457813263,-0.15163372457027435,0.3172467052936554
1772455916819733800,6.633733642578125,0.20025746524333954,-0.1371384561061859,0.335487425327301
1772455916829752000,6.643751953125,0.2238730490207672,-0.13138683140277863,0.3440079689025879
1772455916839769900,6.653769775390625,0.232290580868721,-0.12300577014684677,0.3400863707065582
1772455916849788000,6.663787841796875,0.2374613732099533,-0.1020331159234047,0.3244839608669281
1772455916859805700,6.6738056640625,0.2364238053560257,-0.07070087641477585,0.303381085395813
1772455916869824000,6.683823974609375,0.23144502937793732,-0.04240372031927109,0.25786927342414856
1772455916879843000,6.693843017578125,0.2342378795146942,-0.022320708259940147,0.19913671910762787
1772455916889860900,6.70386083984375,0.2475946992635727,-0.00945471040904522,0.13600409030914307
1772455916899879000,6.71387890625,0.27917447686195374,-0.019303306937217712,0.09333084523677826
1772455916909897000,6.72389697265625,0.3070063889026642,-0.04554103687405586,0.08768228441476822
1772455916919915000,6.7339150390625,0.33014175295829773,-0.08583541959524155,0.1122511476278305
1772455916929932800,6.743932861328125,0.34878069162368774,-0.14138416945934296,0.14569060504436493
1772455916939950800,6.753950927734375,0.36066365242004395,-0.20340590178966522,0.1647718846797943
1772455916949970000,6.763969970703125,0.353444904088974,-0.263024240732193,0.16768965125083923
1772455916959988000,6.773988037109375,0.31525692343711853,-0.3031154274940491,0.13768425583839417
1772455916970006000,6.784006103515625,0.2506754994392395,-0.33453434705734253,0.07066447287797928
1772455916980023800,6.79402392578125,0.1839316338300705,-0.3726257085800171,-0.024937618523836136
1772455916990041900,6.804041748046875,0.11027764528989792,-0.39641013741493225,-0.1415257453918457
1772455917000060000,6.814059814453125,0.04108767211437225,-0.4119332730770111,-0.25808385014533997
1772455917010078000,6.824077880859375,-0.008158169686794281,-0.4084479808807373,-0.3535110354423523
1772455917020095700,6.834095703125,-0.025435248389840126,-0.3419550955295563,-0.4023682475090027
1772455917030114800,6.84411474609375,0.004036891274154186,-0.21277445554733276,-0.3941670358181
1772455917040133000,6.854133056640625,0.08172546327114105,-0.04791100695729256,-0.3282425105571747
1772455917050151000,6.86415087890625,0.21468405425548553,0.09908003360033035,-0.21944467723369598
1772455917060169000,6.8741689453125,0.37451350688934326,0.2220953404903412,-0.06699436902999878
1772455917070186800,6.884186767578125,0.5030925273895264,0.23778189718723297,0.10600883513689041
1772455917080205000,6.894205078125,0.5708417892456055,0.10808637738227844,0.2710256576538086
1772455917090222800,6.904222900390625,0.5705237984657288,-0.07867125421762466,0.4082791209220886
1772455917100242000,6.914241943359375,0.49673232436180115,-0.2515333890914917,0.5043285489082336
1772455917110260000,6.924260009765625,0.3701586425304413,-0.34752967953681946,0.5277614593505859
1772455917120277800,6.93427783203125,0.2289319634437561,-0.34307995438575745,0.4615098834037781
1772455917130296000,6.944296142578125,0.10586462914943695,-0.24396668374538422,0.3143012523651123
1772455917140313900,6.95431396484375,0.028679456561803818,-0.07125416398048401,0.12357089668512344
1772455917150332000,6.964331787109375,0.005788522306829691,0.12997907400131226,-0.058148033916950226
1772455917160350000,6.974349853515625,0.01681038737297058,0.30106812715530396,-0.20326995849609375
1772455917170368000,6.984367919921875,0.05090976879000664,0.4140375554561615,-0.2822662591934204
1772455917180387000,6.994386962890625,0.1070023849606514,0.47941645979881287,-0.2982443571090698
1772455917190404900,7.00440478515625,0.1694556325674057,0.5003121495246887,-0.25332269072532654
1772455917200423000,7.0144228515625,0.2015845626592636,0.4751386344432831,-0.14988398551940918
1772455917210441000,7.02444091796875,0.19713816046714783,0.4426635205745697,-0.015516327694058418
1772455917220459000,7.034458984375,0.1563543975353241,0.4151100814342499,0.11615557223558426
1772455917230476800,7.044476806640625,0.13037526607513428,0.384170800447464,0.19837774336338043
1772455917240494800,7.054494873046875,0.10347973555326462,0.3413301408290863,0.2273332178592682
1772455917250514000,7.064513916015625,0.07302196323871613,0.2852247953414917,0.18369972705841064
1772455917260532000,7.074531982421875,0.03707047551870346,0.2131049484014511,0.07009810209274292
1772455917270550000,7.084550048828125,-0.0041531287133693695,0.11222786456346512,-0.08526592701673508
1772455917280567800,7.09456787109375,-0.060405220836400986,0.012195952236652374,-0.24920211732387543
1772455917290586000,7.104586181640625,-0.11996228247880936,-0.06880223006010056,-0.38607048988342285
1772455917300604000,7.11460400390625,-0.18224406242370605,-0.10777928680181503,-0.48680147528648376
1772455917310622000,7.1246220703125,-0.24086956679821014,-0.093864805996418,-0.545849621295929
1772455917320641000,7.13464111328125,-0.27985069155693054,-0.05327129364013672,-0.5742526650428772
1772455917330658800,7.144658935546875,-0.2917416989803314,-0.0048315864987671375,-0.5674634575843811
1772455917340677000,7.154677001953125,-0.2855170965194702,0.05216120555996895,-0.5265375375747681
1772455917350695000,7.16469482421875,-0.24235951900482178,0.09551426768302917,-0.4672454297542572
1772455917360713000,7.174712890625,-0.17098163068294525,0.11707483232021332,-0.38998889923095703
1772455917370730800,7.184730712890625,-0.07903333753347397,0.13662882149219513,-0.2984960079193115
1772455917380749000,7.1947490234375,-0.004994494374841452,0.1672748327255249,-0.19037580490112305
1772455917390766800,7.204766845703125,0.032820526510477066,0.20419903099536896,-0.07963650673627853
1772455917400786000,7.214785888671875,0.03373610973358154,0.21554523706436157,0.01038532704114914
1772455917410804000,7.224803955078125,0.017078034579753876,0.19063563644886017,0.05172877013683319
1772455917420822000,7.234822021484375,-0.00966873113065958,0.15004946291446686,0.04032261297106743
1772455917430840000,7.244840087890625,-0.02960675209760666,0.08374686539173126,-0.019881339743733406
1772455917440857900,7.25485791015625,-0.024768978357315063,0.001632648753002286,-0.1131596565246582
1772455917450876000,7.2648759765625,-0.009447813034057617,-0.08844584226608276,-0.20377850532531738
1772455917460894000,7.27489404296875,-0.008758855052292347,-0.18027201294898987,-0.2724108397960663
1772455917470913000,7.2849130859375,-0.032961927354335785,-0.2276829481124878,-0.30397382378578186
1772455917480931000,7.29493115234375,-0.07748684287071228,-0.2376992404460907,-0.30936434864997864
1772455917490948900,7.304948974609375,-0.13438446819782257,-0.22696909308433533,-0.3126016855239868
1772455917500967000,7.314966796875,-0.19251972436904907,-0.21865306794643402,-0.33782145380973816
1772455917510985000,7.32498486328125,-0.24290327727794647,-0.1948326826095581,-0.375907301902771
1772455917521003000,7.3350029296875,-0.2738451361656189,-0.14340919256210327,-0.42118898034095764
1772455917531020800,7.345020751953125,-0.2798670828342438,-0.10774732381105423,-0.45780184864997864
1772455917541039000,7.3550390625,-0.2710403501987457,-0.09342134743928909,-0.47122722864151
1772455917551058000,7.365057861328125,-0.25175344944000244,-0.091037817299366,-0.4499911963939667
1772455917561076000,7.375075927734375,-0.21474380791187286,-0.09941162914037704,-0.39434462785720825
1772455917571094000,7.385093994140625,-0.15841582417488098,-0.1141546219587326,-0.30493485927581787
1772455917581111800,7.39511181640625,-0.10471080988645554,-0.13039745390415192,-0.18540778756141663
1772455917591130000,7.405130126953125,-0.05145877227187157,-0.14177954196929932,-0.05359888821840286
1772455917601148000,7.41514794921875,-0.011902733705937862,-0.14897926151752472,0.07016497105360031
1772455917611166000,7.425166015625,0.01637071557343006,-0.16487061977386475,0.17733269929885864
1772455917621184800,7.435184814453125,0.03187970817089081,-0.18803901970386505,0.25741127133369446
1772455917631202800,7.445202880859375,0.037084322422742844,-0.19342605769634247,0.3099522590637207
1772455917641221000,7.45522119140625,0.03842252492904663,-0.20298129320144653,0.3300536572933197
1772455917651239000,7.465239013671875,0.040910448879003525,-0.20602183043956757,0.31844812631607056
1772455917661257000,7.475257080078125,0.042837195098400116,-0.18414250016212463,0.29552730917930603
1772455917671275000,7.48527490234375,0.04820958897471428,-0.16339807212352753,0.26567593216896057
1772455917681293000,7.49529296875,0.04298865795135498,-0.16044001281261444,0.24298131465911865
1772455917691311900,7.505311767578125,0.02710023708641529,-0.16655969619750977,0.23465493321418762
1772455917701330000,7.515329833984375,0.02294064685702324,-0.17250066995620728,0.2439935803413391
1772455917711347700,7.52534765625,0.03004489466547966,-0.1825282722711563,0.2729615867137909
1772455917721366000,7.535365966796875,0.04204122722148895,-0.20519864559173584,0.32754868268966675
1772455917731384000,7.545384033203125,0.042300350964069366,-0.22460350394248962,0.409274697303772
1772455917741401900,7.55540185546875,0.03822770342230797,-0.23835907876491547,0.4863423705101013
1772455917751420000,7.565419921875,0.021829023957252502,-0.24565880000591278,0.5448682904243469
1772455917761438000,7.57543798828125,-0.008716368116438389,-0.23591962456703186,0.5747777223587036
1772455917771457000,7.58545703125,-0.046577997505664825,-0.21508172154426575,0.5696902275085449
1772455917781474800,7.595474853515625,-0.10841017216444016,-0.1784953773021698,0.5284644365310669
1772455917791492900,7.605492919921875,-0.19292345643043518,-0.12851503491401672,0.4359738826751709
1772455917801511000,7.615510986328125,-0.2976396977901459,-0.08660727739334106,0.2768596410751343
1772455917811529000,7.625529052734375,-0.38401666283607483,-0.09046299755573273,0.054731227457523346
1772455917821546800,7.635546630859375,-0.43639037013053894,-0.12759914994239807,-0.17004390060901642
1772455917831564800,7.645564697265625,-0.4494483768939972,-0.1686677485704422,-0.35142195224761963
1772455917841583600,7.65558349609375,-0.42844265699386597,-0.19518566131591797,-0.466178834438324
1772455917851602000,7.665601806640625,-0.3371891677379608,-0.18922071158885956,-0.4919465184211731
1772455917861619700,7.67561962890625,-0.19591403007507324,-0.1747901439666748,-0.4229990243911743
1772455917871637800,7.6856376953125,-0.0668330118060112,-0.1872880905866623,-0.24838459491729736
1772455917881655800,7.69565576171875,0.0005852544563822448,-0.18467535078525543,0.012414480559527874
1772455917891673900,7.705673828125,0.001445455476641655,-0.13638584315776825,0.28616905212402344
1772455917901692000,7.71569189453125,-0.0415516160428524,-0.10200488567352295,0.4818512201309204
1772455917911709700,7.725709716796875,-0.09838587790727615,-0.11037307232618332,0.5727920532226562
1772455917921728800,7.735728759765625,-0.17199400067329407,-0.11034248769283295,0.5755938291549683
1772455917931746800,7.745746826171875,-0.264909029006958,-0.08812932670116425,0.5216147303581238
1772455917941764900,7.755764892578125,-0.3452986478805542,-0.02127869985997677,0.42326754331588745
1772455917951782700,7.76578271484375,-0.40167322754859924,0.12105607241392136,0.31207388639450073
1772455917961800700,7.77580078125,-0.42928069829940796,0.30682018399238586,0.20640794932842255
1772455917971819000,7.785819091796875,-0.438618540763855,0.4683699309825897,0.10827817022800446
1772455917981836800,7.7958369140625,-0.4492691457271576,0.5770799517631531,0.03536704182624817
1772455917991855900,7.80585595703125,-0.4511008560657501,0.6276618838310242,-0.03546478599309921
1772455918001873700,7.815873779296875,-0.43438202142715454,0.6059147119522095,-0.10685309022665024
1772455918011892000,7.82589208984375,-0.4191088080406189,0.5057708024978638,-0.18768402934074402
1772455918021909800,7.83590966796875,-0.40293172001838684,0.35350409150123596,-0.27830326557159424
1772455918031927800,7.845927734375,-0.3748455047607422,0.17525926232337952,-0.39937669038772583
1772455918041945600,7.855945556640625,-0.33027592301368713,0.0096220588311553,-0.5416067242622375
1772455918051964000,7.8659638671875,-0.2818183898925781,-0.19474518299102783,-0.6897522211074829
1772455918061982000,7.87598193359375,-0.22398962080478668,-0.4575709104537964,-0.7586832642555237
1772455918072000800,7.886000732421875,-0.15756025910377502,-0.6861236691474915,-0.7107490301132202
1772455918082018800,7.896018798828125,-0.08713174611330032,-0.8303831219673157,-0.5402143597602844
1772455918092036600,7.90603662109375,0.004508427809923887,-0.8846644759178162,-0.30737656354904175
1772455918102055000,7.916054931640625,0.10050501674413681,-0.8180451393127441,-0.03427908197045326
1772455918112072700,7.92607275390625,0.16417640447616577,-0.6372503042221069,0.2352014034986496
1772455918122090800,7.9360908203125,0.18289248645305634,-0.4062069058418274,0.468755841255188
1772455918132108800,7.94610888671875,0.17087577283382416,-0.18666629493236542,0.6219131946563721
1772455918142127900,7.9561279296875,0.1525668203830719,-0.01294304896146059,0.6827394366264343
1772455918152146000,7.96614599609375,0.11925042420625687,0.14888499677181244,0.6699932813644409
1772455918162163700,7.976163818359375,0.09466313570737839,0.2972428798675537,0.5901628136634827
1772455918172181800,7.986181640625,0.0751514881849289,0.4275875687599182,0.4562915563583374
1772455918182199800,7.99619970703125,0.08306095749139786,0.547771692276001,0.28260523080825806
1772455918192217900,8.0062177734375,0.12746037542819977,0.6141238212585449,0.10496784746646881
1772455918202235600,8.016235595703124,0.18160034716129303,0.6038501262664795,-0.03630180284380913
1772455918212253700,8.026253662109376,0.22316882014274597,0.5189650654792786,-0.11215449124574661
1772455918222272800,8.036272705078124,0.25751304626464844,0.4081510901451111,-0.12308358401060104
1772455918232290800,8.046290771484376,0.28299230337142944,0.286782830953598,-0.08699135482311249
1772455918242308900,8.056308837890626,0.2807846665382385,0.16949503123760223,-0.010985508561134338
1772455918252326700,8.06632666015625,0.2657388746738434,0.05147011578083038,0.05531734600663185
1772455918262345000,8.076344970703126,0.22960823774337769,-0.04928228259086609,0.0933263897895813
1772455918272362800,8.08636279296875,0.19580553472042084,-0.13188928365707397,0.0887923538684845
1772455918282380800,8.096380859375,0.18519902229309082,-0.20042186975479126,0.042559411376714706
1772455918292399900,8.10639990234375,0.20279933512210846,-0.21968451142311096,-0.026269456371665
1772455918302417700,8.116417724609375,0.23542021214962006,-0.1778329759836197,-0.10813193023204803
1772455918312436000,8.12643603515625,0.2566112279891968,-0.1137530580163002,-0.17243421077728271
1772455918322453800,8.136453857421875,0.24978071451187134,-0.05149739980697632,-0.21319234371185303
1772455918332471800,8.146471923828125,0.22042948007583618,0.02164658159017563,-0.2292083352804184
1772455918342489600,8.156489501953125,0.17434799671173096,0.11897268146276474,-0.22415491938591003
1772455918352508000,8.1665078125,0.1203278973698616,0.20706899464130402,-0.20903001725673676
1772455918362525700,8.176525634765625,0.06322158128023148,0.2727296054363251,-0.18186381459236145
1772455918372544800,8.186544677734375,0.004990228917449713,0.29392439126968384,-0.15163825452327728
1772455918382562800,8.196562744140625,-0.04479967802762985,0.2790165841579437,-0.13453419506549835
1772455918392580900,8.206580810546875,-0.09268198162317276,0.2334056943655014,-0.14029380679130554
1772455918402599000,8.216598876953125,-0.13482224941253662,0.18102450668811798,-0.16922666132450104
1772455918412616700,8.22661669921875,-0.15845593810081482,0.14154714345932007,-0.20551036298274994
1772455918422634800,8.236634765625,-0.17712818086147308,0.12015978991985321,-0.23791135847568512
1772455918432652800,8.24665283203125,-0.19761055707931519,0.11155778169631958,-0.2583774924278259
1772455918442671900,8.256671875,-0.21105781197547913,0.12476985156536102,-0.26937276124954224
1772455918452690000,8.26668994140625,-0.19853828847408295,0.17953988909721375,-0.2749425172805786
1772455918462707700,8.276707763671874,-0.1621454358100891,0.24548083543777466,-0.2796478271484375
1772455918472725800,8.286725830078124,-0.09962454438209534,0.34109604358673096,-0.28163135051727295
1772455918482743800,8.296743896484376,-0.013351085595786572,0.4638805091381073,-0.27138441801071167
1772455918492761900,8.306761962890626,0.0696982592344284,0.5464686155319214,-0.2370416224002838
1772455918502779600,8.316779541015626,0.13179704546928406,0.5032908320426941,-0.18630832433700562
1772455918512798000,8.3267978515625,0.1808633804321289,0.34263643622398376,-0.129041850566864
1772455918522817000,8.336817138671876,0.20951290428638458,0.12028268724679947,-0.07747119665145874
1772455918532834800,8.346834716796875,0.2403927892446518,-0.09837588667869568,-0.04366236925125122
1772455918542852900,8.356852783203125,0.25873270630836487,-0.28154435753822327,-0.0008714468567632139
1772455918552870700,8.36687060546875,0.2546386420726776,-0.4129450023174286,0.05004926025867462
1772455918562889000,8.376888916015625,0.23564930260181427,-0.4618048667907715,0.10795535147190094
1772455918572906800,8.38690673828125,0.21213679015636444,-0.4149737060070038,0.16947489976882935
1772455918582924800,8.3969248046875,0.18608829379081726,-0.25600579380989075,0.22192609310150146
1772455918592943900,8.40694384765625,0.16320720314979553,-0.018639586865901947,0.25069063901901245
1772455918602961700,8.416961669921875,0.13902480900287628,0.22693225741386414,0.24084821343421936
1772455918612980000,8.42697998046875,0.13137328624725342,0.4118398129940033,0.1941363662481308
1772455918622997800,8.436997802734375,0.13845227658748627,0.48309820890426636,0.12712042033672333
1772455918633015800,8.447015869140625,0.17302756011486053,0.4611007571220398,0.054629188030958176
1772455918643033900,8.457033935546875,0.22939440608024597,0.3955467641353607,-0.008683397434651852
1772455918653052000,8.467052001953125,0.2930690050125122,0.3161211609840393,-0.05394408479332924
1772455918663069700,8.477069580078124,0.3768262565135956,0.2430749237537384,-0.06879701465368271
1772455918673088800,8.4870888671875,0.48187917470932007,0.18731872737407684,-0.03964472562074661
1772455918683106800,8.49710693359375,0.5654857754707336,0.14420707523822784,0.02930568903684616
1772455918693124900,8.507124755859374,0.6085978150367737,0.09662703424692154,0.11347649246454239
1772455918703143000,8.517142822265624,0.6041233539581299,0.03373749554157257,0.1815849393606186
1772455918713160700,8.52716064453125,0.5569020509719849,-0.04734324291348457,0.2160494327545166
1772455918723178800,8.5371787109375,0.47273316979408264,-0.14249838888645172,0.21419279277324677
1772455918733196800,8.54719677734375,0.36134061217308044,-0.21571055054664612,0.1774672567844391
1772455918743215900,8.5572158203125,0.24153777956962585,-0.2422993928194046,0.10395576804876328
1772455918753234000,8.56723388671875,0.13639964163303375,-0.2002539336681366,0.0020477776415646076
1772455918763251700,8.577251708984376,0.07192761451005936,-0.07476669549942017,-0.106926828622818
1772455918773270000,8.58727001953125,0.061441682279109955,0.10213378071784973,-0.22350190579891205
1772455918783287800,8.597287841796875,0.0833098366856575,0.29584580659866333,-0.32208603620529175
1772455918793305900,8.607305908203125,0.1225091740489006,0.47548535466194153,-0.37628722190856934
1772455918803324000,8.617323974609375,0.15896721184253693,0.5944841504096985,-0.3820629119873047
1772455918813342000,8.627342041015625,0.18013161420822144,0.637173593044281,-0.3343353569507599
1772455918823361000,8.637361083984375,0.1882801502943039,0.597576379776001,-0.2542679011821747
1772455918833379000,8.647379150390625,0.1990065574645996,0.49398714303970337,-0.17075569927692413
1772455918843396900,8.65739697265625,0.2283955067396164,0.3726171851158142,-0.10043502599000931
1772455918853415000,8.667414794921875,0.26222720742225647,0.25507375597953796,-0.04029339551925659
1772455918863433000,8.677432861328125,0.3005763292312622,0.16977348923683167,-0.00020473301992751658
1772455918873451000,8.687450927734375,0.3338770270347595,0.09499247372150421,0.015036270953714848
1772455918883468800,8.69746875,0.36529237031936646,0.01815624348819256,0.003867265535518527
1772455918893487900,8.70748779296875,0.3854389190673828,-0.05789218470454216,-0.029119446873664856
1772455918903506000,8.717505859375,0.4015032649040222,-0.1163334846496582,-0.06492134928703308
1772455918913524000,8.72752392578125,0.396668016910553,-0.14259570837020874,-0.09400466829538345
1772455918923542000,8.7375419921875,0.3906470239162445,-0.1336052119731903,-0.10368423908948898
1772455918933559800,8.747559814453124,0.38229936361312866,-0.10615014284849167,-0.10898739099502563
1772455918943578000,8.757578125,0.3687746822834015,-0.05844409018754959,-0.10896199941635132
1772455918953596000,8.767595947265624,0.3625149130821228,-0.01758401095867157,-0.10940568149089813
1772455918963615000,8.777614990234374,0.36184683442115784,0.010884208604693413,-0.11985596269369125
1772455918973633000,8.787633056640624,0.3769821226596832,0.014943399466574192,-0.1333818882703781
1772455918983650800,8.79765087890625,0.39810609817504883,-0.02852662466466427,-0.14217711985111237
1772455918993669000,8.807669189453126,0.40122413635253906,-0.09819997847080231,-0.13978293538093567
1772455919003687000,8.81768701171875,0.3763408958911896,-0.1684299260377884,-0.11825180798768997
1772455919013705000,8.827705078125,0.33979353308677673,-0.2228417694568634,-0.07690037041902542
1772455919023723000,8.837722900390625,0.28578490018844604,-0.25911861658096313,-0.009752031415700912
1772455919033741000,8.847740966796875,0.22683928906917572,-0.27477774024009705,0.05474786460399628
1772455919043760000,8.857760009765625,0.16457070410251617,-0.27715837955474854,0.1017540916800499
1772455919053778000,8.86777783203125,0.11407502740621567,-0.2720586955547333,0.11244535446166992
1772455919063796000,8.8777958984375,0.07940533757209778,-0.24982331693172455,0.0913112685084343
1772455919073814000,8.88781396484375,0.06296005845069885,-0.2164967954158783,0.05360516905784607
1772455919083832000,8.89783203125,0.06366395950317383,-0.19439339637756348,0.018747977912425995
1772455919093849900,8.907849853515625,0.07007632404565811,-0.18323688209056854,-0.005988528020679951
1772455919103868000,8.917867919921875,0.06827668100595474,-0.18096981942653656,-0.014696232043206692
1772455919113886000,8.927885986328125,0.04570373147726059,-0.17749999463558197,-0.011663957498967648
1772455919123905000,8.937905029296875,0.006066803354769945,-0.17339389026165009,-0.003929996397346258
1772455919133923000,8.947923095703125,-0.04236411303281784,-0.162065327167511,-0.0030018845573067665
1772455919143940900,8.95794091796875,-0.08960844576358795,-0.14226223528385162,-0.02124670147895813
1772455919153959000,8.967958984375,-0.1252138465642929,-0.11981019377708435,-0.05766436457633972
1772455919163977000,8.97797705078125,-0.1463167667388916,-0.0896567776799202,-0.10564853250980377
1772455919173995000,8.9879951171875,-0.14354068040847778,-0.06471041589975357,-0.14860931038856506
1772455919184012800,8.9980126953125,-0.10953748226165771,-0.058005597442388535,-0.1719413846731186
1772455919194031900,9.008031982421874,-0.06066581979393959,-0.07887599617242813,-0.16215826570987701
1772455919204050200,9.01805029296875,-0.018148308619856834,-0.11191960424184799,-0.1152387261390686
1772455919214068000,9.02806787109375,0.01888667419552803,-0.1519051045179367,-0.03934156894683838
1772455919224086000,9.0380859375,0.04244356229901314,-0.18902398645877838,0.045610491186380386
1772455919234103800,9.048103759765626,0.04799146205186844,-0.2080429494380951,0.1295458823442459
1772455919244122000,9.0581220703125,0.05111593008041382,-0.17326167225837708,0.18509040772914886
1772455919254140000,9.068139892578126,0.05806545168161392,-0.12144427001476288,0.20289842784404755
1772455919264158000,9.078157958984375,0.060130443423986435,-0.09160518646240234,0.18712382018566132
1772455919274177000,9.088177001953126,0.056157007813453674,-0.11014744639396667,0.15340447425842285
1772455919284195000,9.098195068359376,0.056810956448316574,-0.1734887808561325,0.12869375944137573
1772455919294213000,9.108213134765625,0.04990937560796738,-0.24737659096717834,0.11855857074260712
1772455919304231000,9.11823095703125,0.03410916030406952,-0.29228734970092773,0.1255936324596405
1772455919314249000,9.1282490234375,0.027111971750855446,-0.29026734828948975,0.12377095967531204
1772455919324267000,9.13826708984375,0.041347701102495193,-0.21233905851840973,0.12898728251457214
1772455919334285000,9.14828515625,0.046354711055755615,-0.06636268645524979,0.15745726227760315
1772455919344304000,9.15830419921875,0.022845180705189705,0.08647798746824265,0.20393480360507965
1772455919354322000,9.168322021484375,-0.018801864236593246,0.19946925342082977,0.2528970241546631
1772455919364340000,9.178340087890625,-0.08474522829055786,0.28764018416404724,0.2838215231895447
1772455919374358000,9.18835791015625,-0.14235101640224457,0.35879185795783997,0.27207353711128235
1772455919384376000,9.1983759765625,-0.1918455809354782,0.44573065638542175,0.24615582823753357
1772455919394393900,9.208393798828125,-0.23681677877902985,0.4939615726470947,0.20509521663188934
1772455919404412000,9.218411865234375,-0.2534349262714386,0.4664008617401123,0.16456356644630432
1772455919414430000,9.228429931640624,-0.2475128471851349,0.37158167362213135,0.15844495594501495
1772455919424449000,9.238448974609375,-0.22153843939304352,0.22364455461502075,0.1816432774066925
1772455919434467000,9.248467041015624,-0.16763873398303986,0.056487783789634705,0.2305290549993515
1772455919444484900,9.25848486328125,-0.09954537451267242,-0.09555220603942871,0.3022403120994568
1772455919454503200,9.268503173828124,-0.04801534116268158,-0.1899508833885193,0.3962829113006592
1772455919464521000,9.27852099609375,-0.03423414006829262,-0.21606296300888062,0.5034535527229309
1772455919474539000,9.2885390625,-0.05511199310421944,-0.1995561569929123,0.583318293094635
1772455919484556800,9.298556884765626,-0.10169707238674164,-0.16243036091327667,0.6117488145828247
1772455919494575900,9.308575927734376,-0.16216905415058136,-0.11941035836935043,0.5628257393836975
1772455919504594200,9.31859423828125,-0.22482794523239136,-0.08255856484174728,0.4480668306350708
1772455919514612000,9.328612060546876,-0.27243781089782715,-0.06316089630126953,0.28132686018943787
1772455919524630000,9.338630126953126,-0.2800062596797943,-0.07009058445692062,0.09829364717006683
1772455919534648000,9.34864794921875,-0.23774267733097076,-0.07761268317699432,-0.0736357718706131
1772455919544666000,9.358666015625,-0.16268758475780487,-0.1043810024857521,-0.19953306019306183
1772455919554684000,9.368683837890625,-0.07889842242002487,-0.1773766428232193,-0.26487448811531067
1772455919564702000,9.378701904296875,0.00618733698502183,-0.2811640202999115,-0.25198519229888916
1772455919574720800,9.388720703125,0.06643709540367126,-0.4157884120941162,-0.1719457358121872
1772455919584739000,9.398739013671875,0.10075705498456955,-0.5557466149330139,-0.04111316800117493
1772455919594757000,9.408757080078125,0.11337324976921082,-0.6806076169013977,0.11370730400085449
1772455919604775000,9.41877490234375,0.10185795277357101,-0.7310850620269775,0.27052295207977295
1772455919614793000,9.42879296875,0.08347602188587189,-0.704068124294281,0.38887783885002136
1772455919624811000,9.43881103515625,0.07092423737049103,-0.6011941432952881,0.4526934325695038
1772455919634829000,9.4488291015625,0.08287809789180756,-0.43379130959510803,0.4475269019603729
1772455919644847900,9.458847900390625,0.11296982318162918,-0.22294744849205017,0.38287630677223206
1772455919654866000,9.468865966796875,0.15285810828208923,0.0014587657060474157,0.27492213249206543
1772455919664884000,9.478884033203125,0.1971588134765625,0.19308461248874664,0.13690000772476196
1772455919674902000,9.488902099609374,0.22780007123947144,0.3144214153289795,-0.004899736028164625
1772455919684920000,9.498920166015624,0.23731015622615814,0.34636539220809937,-0.13339558243751526
1772455919694937900,9.508937744140624,0.22552460432052612,0.3257730305194855,-0.22365356981754303
1772455919704956200,9.5189560546875,0.20468834042549133,0.2661339342594147,-0.26418787240982056
1772455919714974000,9.528973876953126,0.18067088723182678,0.20227374136447906,-0.2463470995426178
1772455919724993000,9.538992919921874,0.15448598563671112,0.12472410500049591,-0.17977622151374817
1772455919735010800,9.5490107421875,0.13264887034893036,0.05050420016050339,-0.11567793041467667
1772455919745028900,9.55902880859375,0.11769067496061325,-0.0010385399218648672,-0.08070895820856094
1772455919755047200,9.569047119140626,0.10994194447994232,-0.008828286081552505,-0.08518493175506592
1772455919765065000,9.57906494140625,0.10139262676239014,0.0013319833669811487,-0.12206824868917465
1772455919775083000,9.5890830078125,0.09464710205793381,0.031486690044403076,-0.18159522116184235
1772455919785101000,9.59910107421875,0.10707075148820877,0.099810890853405,-0.2454647570848465
1772455919795119000,9.609119140625,0.14200423657894135,0.1631333976984024,-0.30224278569221497
1772455919805137200,9.61913720703125,0.19186833500862122,0.1957998275756836,-0.33023664355278015
1772455919815155000,9.629155029296875,0.23442165553569794,0.19626320898532867,-0.31296658515930176
1772455919825173200,9.63917333984375,0.24551282823085785,0.15201255679130554,-0.2557482123374939
1772455919835191000,9.64919091796875,0.2278294414281845,0.06522227823734283,-0.17885158956050873
1772455919845209000,9.659208984375,0.1911422610282898,-0.010028306394815445,-0.11088497191667557
1772455919855227000,9.669226806640625,0.160719633102417,-0.010951624251902103,-0.06329641491174698
1772455919865245200,9.6792451171875,0.1520286351442337,0.04258948937058449,-0.05062888190150261
1772455919875264300,9.68926416015625,0.14622800052165985,0.09560290724039078,-0.07932604104280472
1772455919885282000,9.699281982421875,0.15359656512737274,0.12138813734054565,-0.13494539260864258
1772455919895300000,9.709300048828124,0.16557253897190094,0.12897548079490662,-0.19277220964431763
1772455919905318100,9.719318115234374,0.17349328100681305,0.1396850049495697,-0.2326936572790146
1772455919915336200,9.729336181640624,0.17082399129867554,0.15128706395626068,-0.22284768521785736
1772455919925354000,9.73935400390625,0.1527661830186844,0.15554778277873993,-0.1888202726840973
1772455919935372000,9.7493720703125,0.12617450952529907,0.1671365350484848,-0.1440781056880951
1772455919945390000,9.75939013671875,0.10418923199176788,0.1891932636499405,-0.10387173295021057
1772455919955409200,9.7694091796875,0.09144441038370132,0.21467918157577515,-0.07780391722917557
1772455919965427200,9.77942724609375,0.08580461144447327,0.2643830478191376,-0.06648781150579453
1772455919975445000,9.789445068359376,0.08827415853738785,0.33710625767707825,-0.05364497750997543
1772455919985463000,9.799463134765626,0.09666799008846283,0.42239657044410706,-0.040768612176179886
1772455919995481000,9.809481201171875,0.11014225333929062,0.4784923195838928,-0.0509706512093544
1772455920005499100,9.8194990234375,0.12874729931354523,0.48286110162734985,-0.08884458243846893
1772455920015517000,9.829516845703125,0.1385970115661621,0.43226078152656555,-0.1410135179758072
1772455920025536000,9.839535888671875,0.13997331261634827,0.35800567269325256,-0.19336426258087158
1772455920035554000,9.849553955078125,0.11994393914937973,0.2656688392162323,-0.24425168335437775
1772455920045572000,9.859572021484375,0.08489146828651428,0.19650492072105408,-0.2929792106151581
1772455920055590100,9.869590087890625,0.044183455407619476,0.13713480532169342,-0.3225056827068329
1772455920065608000,9.87960791015625,0.012588352896273136,0.11527199298143387,-0.3175313174724579
1772455920075626200,9.889626220703125,0.00286275427788496,0.11160162836313248,-0.26866471767425537
1772455920085644000,9.89964404296875,0.021108834072947502,0.12476728111505508,-0.16722743213176727
1772455920095662000,9.909662109375,0.0608634389936924,0.13859866559505463,-0.012009885162115097
1772455920105681000,9.919680908203125,0.1050422266125679,0.1581430584192276,0.1661587655544281
1772455920115699000,9.929698974609375,0.15416716039180756,0.16917893290519714,0.32144954800605774
1772455920125717200,9.93971728515625,0.21656470000743866,0.1743643432855606,0.4259881377220154
1772455920135735000,9.949735107421875,0.2855603098869324,0.1986406445503235,0.4738936126232147
1772455920145753000,9.959753173828124,0.34339937567710876,0.2335176020860672,0.4767409861087799
1772455920155771100,9.969771240234374,0.38660702109336853,0.24675990641117096,0.44168713688850403
1772455920165789200,9.9797890625,0.40489688515663147,0.24991081655025482,0.3864516317844391
1772455920175807000,9.989806884765626,0.41469863057136536,0.22173698246479034,0.31611916422843933
1772455920185826000,9.999825927734374,0.41192471981048584,0.15418513119220734,0.23242338001728058
1772455920195844000,10.009843994140626,0.3981359302997589,0.06345763057470322,0.15593872964382172
1772455920205862100,10.019862060546876,0.37036216259002686,-0.025190113112330437,0.08147746324539185
1772455920215880200,10.029880126953126,0.3500414490699768,-0.11872059851884842,0.009623514488339424
1772455920225898000,10.03989794921875,0.33523496985435486,-0.19831664860248566,-0.06333416700363159
1772455920235916000,10.049916015625,0.32031407952308655,-0.23678654432296753,-0.12693044543266296
1772455920245934000,10.05993408203125,0.2988826334476471,-0.20481333136558533,-0.17443174123764038
1772455920255953200,10.069953125,0.28159552812576294,-0.1220627874135971,-0.20812898874282837
1772455920265971000,10.079970947265625,0.27114400267601013,-0.007351921871304512,-0.2425556182861328
1772455920275989000,10.089989013671875,0.27398186922073364,0.1268056184053421,-0.29615092277526855
1772455920286007000,10.100007080078125,0.2995854318141937,0.25889450311660767,-0.3583623766899109
1772455920296025000,10.110025146484375,0.3436964154243469,0.35287797451019287,-0.4110788404941559
1772455920306043100,10.120043212890625,0.40859878063201904,0.4012312889099121,-0.45260918140411377
1772455920316061000,10.13006103515625,0.47760048508644104,0.4035194516181946,-0.4719003140926361
1772455920326080000,10.140080078125,0.5397254228591919,0.35874688625335693,-0.4670654833316803
1772455920336098000,10.15009814453125,0.5809351801872253,0.28145265579223633,-0.4395531713962555
1772455920346116000,10.1601162109375,0.607861340045929,0.16661298274993896,-0.3981282413005829
1772455920356134000,10.1701337890625,0.6320673227310181,0.030438905581831932,-0.3360755443572998
1772455920366152000,10.18015185546875,0.6418814659118652,-0.10594125092029572,-0.26029470562934875
1772455920376170200,10.190170166015625,0.6485060453414917,-0.20495732128620148,-0.183280348777771
1772455920386188000,10.20018798828125,0.6532407999038696,-0.2503856122493744,-0.11003991961479187
1772455920396206000,10.2102060546875,0.6525049209594727,-0.26958274841308594,-0.055215023458004
1772455920406225000,10.220224853515624,0.6453761458396912,-0.2810266613960266,-0.036482539027929306
1772455920416243200,10.2302431640625,0.6370071768760681,-0.27711260318756104,-0.057044804096221924
1772455920426261000,10.240260986328124,0.6375663876533508,-0.24097461998462677,-0.10065965354442596
1772455920436279000,10.250279052734374,0.6349290609359741,-0.1623794138431549,-0.1461922526359558
1772455920446297000,10.260297119140626,0.6453353762626648,-0.058734744787216187,-0.1780489683151245
1772455920456315100,10.270315185546876,0.6673352122306824,0.021318010985851288,-0.18346397578716278
1772455920466333200,10.280333251953126,0.6911072134971619,0.051598623394966125,-0.1540459394454956
1772455920476351000,10.29035107421875,0.6959547400474548,0.01696208119392395,-0.09125099331140518
1772455920486370000,10.3003701171875,0.6791718602180481,-0.05541599169373512,-0.020543701946735382
1772455920496387800,10.310387939453125,0.6375865936279297,-0.14130054414272308,0.03970339521765709
1772455920506406100,10.32040625,0.5715863704681396,-0.21783466637134552,0.08417098224163055
1772455920516424000,10.330423828125,0.49977847933769226,-0.2950785756111145,0.09572909772396088
1772455920526442000,10.34044189453125,0.4355729818344116,-0.3180103898048401,0.08136145770549774
1772455920536460300,10.350460205078125,0.3837457299232483,-0.2855440676212311,0.04517069831490517
1772455920546478000,10.36047802734375,0.34522223472595215,-0.2168074995279312,-0.003531387075781822
1772455920556497200,10.3704970703125,0.32508793473243713,-0.15228229761123657,-0.05533546209335327
1772455920566515000,10.380514892578125,0.3222721219062805,-0.10097278654575348,-0.09204204380512238
1772455920576533000,10.390532958984375,0.31545737385749817,-0.06313087046146393,-0.1096106544137001
1772455920586551000,10.400551025390625,0.3149417042732239,-0.0406666062772274,-0.12015178054571152
1772455920596569000,10.410569091796875,0.31159862875938416,-0.03561165928840637,-0.10837422311306
1772455920606587100,10.420587158203125,0.30518609285354614,-0.061528563499450684,-0.08364545553922653
1772455920616605000,10.43060498046875,0.3017817735671997,-0.09703169763088226,-0.036475811153650284
1772455920626623200,10.440623291015624,0.3063206374645233,-0.12066196650266647,0.03558891639113426
1772455920636642000,10.45064208984375,0.3320278823375702,-0.13492637872695923,0.1028933897614479
1772455920646660000,10.46066015625,0.36051490902900696,-0.14995495975017548,0.15557889640331268
1772455920656678000,10.470677978515624,0.37360328435897827,-0.17256812751293182,0.19690929353237152
1772455920666696200,10.4806962890625,0.37901070713996887,-0.18674802780151367,0.23332266509532928
1772455920676714000,10.4907138671875,0.38303980231285095,-0.17336750030517578,0.2588661015033722
1772455920686732000,10.50073193359375,0.3933531641960144,-0.15012413263320923,0.27195316553115845
1772455920696750000,10.51075,0.40926793217658997,-0.12324510514736176,0.2803034782409668
1772455920706768100,10.52076806640625,0.4221125841140747,-0.10124552249908447,0.3022814393043518
1772455920716787200,10.530787109375,0.42169180512428284,-0.10041221976280212,0.3257606625556946
1772455920726805000,10.540804931640626,0.4061776101589203,-0.15339618921279907,0.340544193983078
1772455920736823000,10.550822998046876,0.38862258195877075,-0.2567707896232605,0.33103296160697937
1772455920746840800,10.5608408203125,0.3567865192890167,-0.39871689677238464,0.3006371557712555
1772455920756859100,10.570859130859375,0.3004430830478668,-0.5261470079421997,0.2574646770954132
1772455920766877000,10.580876953125,0.23812150955200195,-0.5895335078239441,0.21283408999443054
1772455920776895000,10.59089501953125,0.1829749047756195,-0.5669917464256287,0.16909033060073853
1772455920786914000,10.6009140625,0.1364264190196991,-0.4536527097225189,0.12091207504272461
1772455920796932000,10.61093212890625,0.10096322000026703,-0.2780366837978363,0.08481532335281372
1772455920806950400,10.620950439453125,0.07898090779781342,-0.05625873804092407,0.08090974390506744
1772455920816968200,10.63096826171875,0.0807710811495781,0.2087143361568451,0.10078198462724686
1772455920826986200,10.640986328125,0.11559993028640747,0.4432295858860016,0.13254483044147491
1772455920837004500,10.651004638671875,0.15368953347206116,0.5881098508834839,0.17226216197013855
1772455920847022300,10.661022216796875,0.18471652269363403,0.6340707540512085,0.21353647112846375
1772455920857040400,10.671040283203125,0.20825327932834625,0.6114006042480469,0.25904855132102966
1772455920867059200,10.68105908203125,0.21428442001342773,0.5379137396812439,0.29532769322395325
1772455920877077200,10.6910771484375,0.2218371480703354,0.45745643973350525,0.2952813506126404
1772455920887095300,10.70109521484375,0.2331060916185379,0.4104197919368744,0.27239763736724854
1772455920897113300,10.71111328125,0.25949323177337646,0.4347480535507202,0.23315118253231049
1772455920907131100,10.721131103515624,0.2934798300266266,0.5399831533432007,0.17155124247074127
1772455920917149200,10.731149169921874,0.34675130248069763,0.7014397382736206,0.08887980133295059
1772455920927167500,10.74116748046875,0.38375288248062134,1.0134168863296509,0.15255607664585114
1772455920937185300,10.751185302734376,0.3437806963920593,0.9628748297691345,0.23539769649505615
1772455920947204400,10.761204345703124,0.3124287724494934,0.5477949976921082,0.2849056124687195
1772455920957222100,10.77122216796875,0.3315601348876953,0.071574367582798,0.2786668837070465
1772455920967240400,10.781240478515626,0.3149458169937134,-0.18543456494808197,0.2990482747554779
1772455920977258200,10.79125830078125,0.2921837866306305,-0.2799088954925537,0.32272055745124817
1772455920987276300,10.8012763671875,0.32887452840805054,-0.3045124411582947,0.3614983558654785
1772455920997294000,10.811294189453125,0.37743887305259705,-0.336542546749115,0.4363153278827667
1772455921007312400,10.8213125,0.39107441902160645,-0.37179040908813477,0.5394392013549805
