time,seconds_elapsed,z,y,x
1772455910249085200,0.063085205078125,0.01435150858014822,0.08236811310052872,-0.0320785753428936
1772455910259104300,0.073104248046875,0.007140467409044504,0.08682597428560257,-0.054297592490911484
1772455910269122300,0.083122314453125,0.004070907831192017,0.08369249850511551,-0.05735969543457031
1772455910279140400,0.093140380859375,-0.00018082863243762404,0.06316831707954407,-0.05004772171378136
1772455910289158400,0.103158447265625,0.00015526228526141495,0.03520352765917778,-0.032400816679000854
1772455910299176200,0.11317626953125,0.0022184131667017937,0.005943376570940018,-0.008787899278104305
1772455910309194200,0.1231943359375,0.015132613480091095,-0.00498117646202445,0.018029866740107536
1772455910319213300,0.13321337890625,0.023145265877246857,-0.020481839776039124,0.04392910748720169
1772455910329231400,0.1432314453125,0.02558312378823757,-0.04283614829182625,0.05982871353626251
1772455910339249400,0.15324951171875,0.019702864810824394,-0.05086398124694824,0.05736129358410835
1772455910349267200,0.16326708984375,0.021978003904223442,-0.03168975189328194,0.04508092626929283
1772455910359285200,0.17328515625,0.024287495762109756,-0.014360830187797546,0.01805729791522026
1772455910369303300,0.18330322265625,0.025655029341578484,-0.01804211735725403,-0.017942780628800392
1772455910379321300,0.1933212890625,0.01637471280992031,-0.03195047751069069,-0.04746924713253975
1772455910389340400,0.20334033203125,0.014821556396782398,-0.02666383422911167,-0.0638681948184967
1772455910399358200,0.213358154296875,0.011305118910968304,-0.00561154680326581,-0.06854870170354843
1772455910409376300,0.223376220703125,-0.0009089368977583945,0.003733485471457243,-0.06334435194730759
1772455910419394300,0.233394287109375,-0.017361680045723915,-0.0019078885670751333,-0.04906048625707626
1772455910429412400,0.243412353515625,-0.022955382242798805,-0.0051843756809830666,-0.02503051795065403
1772455910439430100,0.25343017578125,-0.029268406331539154,0.008898420259356499,-0.007186806295067072
1772455910449448400,0.263448486328125,-0.03544134646654129,0.023070165887475014,0.00035206988104619086
1772455910459467500,0.273467529296875,-0.04243401065468788,0.024563400074839592,-0.013250024989247322
1772455910469485300,0.2834853515625,-0.05167810618877411,0.024274712428450584,-0.03575453534722328
1772455910479503400,0.29350341796875,-0.05964575335383415,0.010061955079436302,-0.06293262541294098
1772455910489521200,0.303521240234375,-0.06488152593374252,-0.00827870238572359,-0.0781848132610321
1772455910499539500,0.31353955078125,-0.07718852907419205,-0.021582523360848427,-0.08283815532922745
1772455910509557200,0.32355712890625,-0.07501672208309174,0.0009233179152943194,-0.07434506714344025
1772455910519575300,0.3335751953125,-0.06743363291025162,0.04424042999744415,-0.06516941636800766
1772455910529594400,0.343594482421875,-0.06458698213100433,0.0734715536236763,-0.058879829943180084
1772455910539612400,0.3536123046875,-0.05072629451751709,0.06869570910930634,-0.05556046590209007
1772455910549630500,0.36363037109375,-0.03298990800976753,0.03484533354640007,-0.04306731000542641
1772455910559648300,0.373648193359375,-0.004059189930558205,0.008821987546980381,-0.01438027061522007
1772455910569666300,0.383666259765625,0.02442251890897751,-0.02418256737291813,0.024715999141335487
1772455910579684400,0.393684326171875,0.04057219251990318,-0.07146219909191132,0.07484627515077591
1772455910589702400,0.403702392578125,0.04685672000050545,-0.09831671416759491,0.12091976404190063
1772455910599721200,0.41372119140625,0.04726019129157066,-0.06657636165618896,0.15878431499004364
1772455910609739300,0.4237392578125,0.04953932389616966,0.01209554448723793,0.1882290244102478
1772455910619757300,0.43375732421875,0.059175971895456314,0.10998748987913132,0.21923035383224487
1772455910629775400,0.443775390625,0.0633201152086258,0.20275098085403442,0.2508538067340851
1772455910639793400,0.45379345703125,0.05760630592703819,0.23987837135791779,0.2732272744178772
1772455910649811200,0.463811279296875,0.06071394681930542,0.22272548079490662,0.3048427402973175
1772455910659829500,0.47382958984375,0.07439939677715302,0.11146953701972961,0.339289128780365
1772455910669848300,0.483848388671875,0.04508598521351814,-0.03777933493256569,0.38491493463516235
1772455910679866400,0.493866455078125,-0.014620487578213215,-0.15845701098442078,0.4230801463127136
1772455910689884400,0.503884521484375,-0.07948097586631775,-0.1938222050666809,0.432055801153183
1772455910699902200,0.513902099609375,-0.11803316324949265,-0.14773805439472198,0.3948333263397217
1772455910709920500,0.52392041015625,-0.12938515841960907,-0.06123912334442139,0.3210563063621521
1772455910719938300,0.533938232421875,-0.12603436410427094,0.008618521504104137,0.21854645013809204
1772455910729957400,0.543957275390625,-0.12469985336065292,0.06162687763571739,0.10483001172542572
1772455910739975200,0.55397509765625,-0.11784780770540237,0.10972490161657333,0.014693458564579487
1772455910749993200,0.5639931640625,-0.1132192313671112,0.1829671561717987,-0.02400839701294899
1772455910760011300,0.57401123046875,-0.10928601026535034,0.30902495980262756,-0.006185724399983883
1772455910770029300,0.584029296875,-0.10602284222841263,0.4543536603450775,0.044371992349624634
1772455910780047400,0.59404736328125,-0.10344596207141876,0.5213707685470581,0.12640666961669922
1772455910790065700,0.604065673828125,-0.10262544453144073,0.5123804807662964,0.22452232241630554
1772455910800084700,0.614084716796875,-0.09343940019607544,0.45835745334625244,0.30874958634376526
1772455910810102800,0.624102783203125,-0.10126856714487076,0.39829596877098083,0.3726465404033661
1772455910820120800,0.634120849609375,-0.11497665196657181,0.403323769569397,0.41828858852386475
1772455910830138600,0.644138671875,-0.13411466777324677,0.45971086621284485,0.4562239944934845
1772455910840156700,0.65415673828125,-0.15598560869693756,0.4624802768230438,0.4548886716365814
1772455910850174700,0.6641748046875,-0.19773145020008087,0.3823052942752838,0.40416985750198364
1772455910860192800,0.67419287109375,-0.22394122183322906,0.30298012495040894,0.3214166462421417
1772455910870211800,0.6842119140625,-0.2067853957414627,0.2396424114704132,0.23218104243278503
1772455910880229600,0.694229736328125,-0.15225344896316528,0.20441226661205292,0.1353335827589035
1772455910890248000,0.704248046875,-0.0719950944185257,0.18444441258907318,0.039630234241485596
1772455910900265700,0.714265625,-0.005593437235802412,0.16017182171344757,-0.05354791507124901
1772455910910283800,0.72428369140625,0.03712020441889763,0.10255087912082672,-0.140616774559021
1772455910920301600,0.734301513671875,0.04319673776626587,0.11220882833003998,-0.18372216820716858
1772455910930320000,0.74431982421875,0.016939302906394005,0.02720445580780506,-0.2196308970451355
1772455910940338700,0.754338623046875,-0.016599483788013458,-0.27400916814804077,-0.24098359048366547
1772455910950356700,0.764356689453125,-0.057442788034677505,-0.4209485650062561,-0.2287258505821228
1772455910960374800,0.774374755859375,-0.12919287383556366,-0.43637385964393616,-0.20276989042758942
1772455910970392800,0.784392822265625,-0.20273713767528534,-0.34599921107292175,-0.1775212585926056
1772455910980411000,0.794410888671875,-0.2689606249332428,-0.19255506992340088,-0.1658337116241455
1772455910990428700,0.8044287109375,-0.3217311501502991,-0.048838913440704346,-0.18210722506046295
1772455911000446700,0.81444677734375,-0.35582974553108215,0.05524807423353195,-0.21523188054561615
1772455911010465500,0.824465576171875,-0.35412320494651794,0.12423699349164963,-0.25058215856552124
1772455911020483800,0.83448388671875,-0.31750738620758057,0.1613188534975052,-0.27813494205474854
1772455911030501600,0.844501708984375,-0.25282055139541626,0.1706191450357437,-0.2771037817001343
1772455911040519700,0.854519775390625,-0.18911266326904297,0.14122183620929718,-0.25742992758750916
1772455911050537700,0.864537841796875,-0.12536165118217468,0.07540847361087799,-0.2165410965681076
1772455911060555800,0.8745556640625,-0.05591839179396629,-0.029346968978643417,-0.16961753368377686
1772455911070574800,0.884574951171875,0.012122176587581635,-0.1467881053686142,-0.10942716151475906
1772455911080592600,0.894592529296875,0.06438910961151123,-0.24404728412628174,-0.03509194031357765
1772455911090610700,0.904610595703125,0.09375578910112381,-0.3182799816131592,0.052616607397794724
1772455911100628700,0.914628662109375,0.10485078394412994,-0.37917420268058777,0.13858157396316528
1772455911110646800,0.924646728515625,0.10359616577625275,-0.4136994481086731,0.2135423719882965
1772455911120664800,0.934664794921875,0.09501519799232483,-0.4256937801837921,0.2727378010749817
1772455911130682600,0.9446826171875,0.07850146293640137,-0.4004392921924591,0.29320311546325684
1772455911140701700,0.95470166015625,0.05607552081346512,-0.3453773558139801,0.2693081796169281
1772455911150719700,0.9647197265625,0.034270089119672775,-0.27172818779945374,0.21884793043136597
1772455911160737800,0.97473779296875,-0.0027425233274698257,-0.19153481721878052,0.13933099806308746
1772455911170755600,0.984755615234375,-0.043475836515426636,-0.10733018815517426,0.054064299911260605
1772455911180773600,0.994773681640625,-0.07336556166410446,-0.022611569613218307,-0.03003060258924961
1772455911190791700,1.004791748046875,-0.08173613995313644,0.055874451994895935,-0.11104502528905869
1772455911200809700,1.014809814453125,-0.06891994178295135,0.12106410413980484,-0.17411135137081146
1772455911210828800,1.024828857421875,-0.06582321971654892,0.17164579033851624,-0.2068764865398407
1772455911220846600,1.0348466796875,-0.06584026664495468,0.1713736206293106,-0.2197965383529663
1772455911230864600,1.04486474609375,-0.07442203909158707,0.13456925749778748,-0.21935445070266724
1772455911240882700,1.054882568359375,-0.06769036501646042,0.08704674988985062,-0.20404979586601257
1772455911250900700,1.064900634765625,-0.057983942329883575,0.032043155282735825,-0.1948312669992447
1772455911260918500,1.07491845703125,-0.0390416756272316,-0.018909774720668793,-0.18941174447536469
1772455911270936800,1.084936767578125,-0.020205935463309288,-0.06484077870845795,-0.1768759787082672
1772455911280956000,1.094955810546875,-0.00842730700969696,-0.11150389164686203,-0.14229349792003632
1772455911290973700,1.1049736328125,-0.0008085357258096337,-0.13787052035331726,-0.0849471166729927
1772455911300991700,1.11499169921875,-0.007324757985770702,-0.15801359713077545,-0.018087390810251236
1772455911311009500,1.125009521484375,-0.02942846156656742,-0.16193483769893646,0.027820445597171783
1772455911321027800,1.13502783203125,-0.045637525618076324,-0.16012975573539734,0.03422055393457413
1772455911331045600,1.145045654296875,-0.05019419640302658,-0.1615590751171112,0.013762949965894222
1772455911341064700,1.155064697265625,-0.05606167018413544,-0.15539199113845825,-0.024234233424067497
1772455911351082800,1.165082763671875,-0.0663987323641777,-0.13500867784023285,-0.058210574090480804
1772455911361100800,1.175100830078125,-0.06609033793210983,-0.1198427826166153,-0.09685491025447845
1772455911371118800,1.185118896484375,-0.06578540802001953,-0.12107129395008087,-0.12507696449756622
1772455911381136600,1.19513671875,-0.07419353723526001,-0.12093973904848099,-0.13634559512138367
1772455911391154700,1.20515478515625,-0.09399999678134918,-0.09325724095106125,-0.12989407777786255
1772455911401172700,1.2151728515625,-0.1049642339348793,-0.052985187619924545,-0.11402404308319092
1772455911411191800,1.22519189453125,-0.11303174495697021,-0.002118811011314392,-0.09882484376430511
1772455911421209900,1.2352099609375,-0.12585459649562836,0.045571211725473404,-0.08574526757001877
1772455911431227600,1.2452275390625,-0.1454719752073288,0.07918829470872879,-0.08073532581329346
1772455911441245700,1.25524560546875,-0.15677016973495483,0.09212486445903778,-0.08127009123563766
1772455911451263700,1.265263671875,-0.1610506772994995,0.08073931932449341,-0.08973361551761627
1772455911461281800,1.27528173828125,-0.16394419968128204,0.05688325688242912,-0.11135555058717728
1772455911471299600,1.285299560546875,-0.15924212336540222,0.02937093749642372,-0.13287656009197235
1772455911481318700,1.295318603515625,-0.14430151879787445,0.0157129168510437,-0.1483180969953537
1772455911491336700,1.305336669921875,-0.12841816246509552,0.0121251055970788,-0.15074743330478668
1772455911501354800,1.315354736328125,-0.12253310531377792,0.0002801645314320922,-0.1483391374349594
1772455911511372800,1.325372802734375,-0.12010137736797333,-0.019175292924046516,-0.14601312577724457
1772455911521390600,1.335390625,-0.10386195033788681,-0.03812847658991814,-0.14039573073387146
1772455911531409000,1.345408935546875,-0.07948390394449234,-0.05275935307145119,-0.12406415492296219
1772455911541426700,1.3554267578125,-0.0569293275475502,-0.06192541867494583,-0.10689529031515121
1772455911551445800,1.36544580078125,-0.034091126173734665,-0.07258418947458267,-0.08627896010875702
1772455911561463800,1.3754638671875,-0.006400108803063631,-0.09552519023418427,-0.0669231042265892
1772455911571481600,1.385481689453125,0.010295780375599861,-0.12240900099277496,-0.0470426082611084
1772455911581500000,1.3955,0.011712316423654556,-0.14857003092765808,-0.030612504109740257
1772455911591517700,1.405517578125,0.018185662105679512,-0.1643625795841217,-0.013036440126597881
1772455911601535700,1.41553564453125,0.030556311830878258,-0.17823632061481476,-0.0017624800093472004
1772455911611553800,1.4255537109375,0.05018487200140953,-0.19374603033065796,0.016452476382255554
1772455911621572600,1.435572509765625,0.07092210650444031,-0.20829461514949799,0.04602954164147377
1772455911631590700,1.445590576171875,0.093097984790802,-0.22803370654582977,0.07364359498023987
1772455911641608700,1.455608642578125,0.11541447788476944,-0.24648354947566986,0.10093140602111816
1772455911651626800,1.465626708984375,0.11475773900747299,-0.2504942715167999,0.13714399933815002
1772455911661644800,1.475644775390625,0.09740351885557175,-0.2337789386510849,0.166190043091774
1772455911671662800,1.485662841796875,0.07017349451780319,-0.18634137511253357,0.17551350593566895
1772455911681680600,1.4956806640625,0.04503032565116882,-0.12210273742675781,0.16530001163482666
1772455911691699700,1.50569970703125,0.029196234419941902,-0.0590132512152195,0.13737569749355316
1772455911701717500,1.515717529296875,0.036681581288576126,-0.00824061967432499,0.10300946980714798
1772455911711735800,1.52573583984375,0.06670313328504562,0.029571473598480225,0.07561113685369492
1772455911721753900,1.53575390625,0.11050893366336823,0.05645155906677246,0.06949359178543091
1772455911731771600,1.545771728515625,0.15156981348991394,0.08113506436347961,0.08608321845531464
1772455911741789700,1.555789794921875,0.17383277416229248,0.09059115499258041,0.1194307878613472
1772455911751807700,1.565807861328125,0.17578381299972534,0.07231014966964722,0.1581297218799591
1772455911761826800,1.575826904296875,0.18408754467964172,0.04982854425907135,0.18809133768081665
1772455911771844600,1.5858447265625,0.17574386298656464,0.017645839601755142,0.2130262553691864
1772455911781862700,1.595862548828125,0.16311754286289215,-0.023860858753323555,0.2092011570930481
1772455911791880700,1.605880615234375,0.16720150411128998,-0.09319066256284714,0.19499585032463074
1772455911801898500,1.6158984375,0.15403777360916138,-0.1868170201778412,0.16619989275932312
1772455911811916500,1.62591650390625,0.1392388492822647,-0.29995396733283997,0.13838663697242737
1772455911821934600,1.6359345703125,0.1401619017124176,-0.38455432653427124,0.10656452924013138
1772455911831953400,1.645953369140625,0.1562681645154953,-0.44997328519821167,0.08426880836486816
1772455911841971700,1.6559716796875,0.16925586760044098,-0.49331143498420715,0.08164719492197037
1772455911851989500,1.665989501953125,0.17428551614284515,-0.511522114276886,0.09819074720144272
1772455911862007600,1.676007568359375,0.1643228977918625,-0.5111828446388245,0.13444489240646362
1772455911872025600,1.686025634765625,0.14213770627975464,-0.49248480796813965,0.18415997922420502
1772455911882043600,1.696043701171875,0.12441889196634293,-0.43812593817710876,0.24939517676830292
1772455911892061700,1.706061767578125,0.11050920188426971,-0.333538293838501,0.3072150647640228
1772455911902080500,1.71608056640625,0.105622299015522,-0.2273399531841278,0.33139631152153015
1772455911912098600,1.7260986328125,0.11875088512897491,-0.12755157053470612,0.32792940735816956
1772455911922116600,1.73611669921875,0.14767786860466003,-0.05089673772454262,0.29918643832206726
1772455911932134700,1.746134765625,0.16696368157863617,-0.012177570722997189,0.2621368169784546
1772455911942152400,1.75615234375,0.18417462706565857,0.0023462448734790087,0.22977088391780853
1772455911952170500,1.76617041015625,0.20197227597236633,-0.009103483520448208,0.2044316977262497
1772455911962188500,1.7761884765625,0.22694313526153564,-0.044557347893714905,0.1859283298254013
1772455911972207600,1.78620751953125,0.25257712602615356,-0.08070416748523712,0.19581210613250732
1772455911982225700,1.7962255859375,0.2565750479698181,-0.15576376020908356,0.23289929330348969
1772455911992243500,1.806243408203125,0.22866512835025787,-0.26259541511535645,0.2734810709953308
1772455912002261800,1.81626171875,0.16793201863765717,-0.35591816902160645,0.3044842779636383
1772455912012279600,1.826279541015625,0.08986064791679382,-0.40069282054901123,0.32351574301719666
1772455912022297600,1.836297607421875,0.004295678809285164,-0.397195041179657,0.3344530761241913
1772455912032315400,1.8463154296875,-0.06798171252012253,-0.35887134075164795,0.33272069692611694
1772455912042334500,1.85633447265625,-0.1333860158920288,-0.26041826605796814,0.3222893476486206
1772455912052352800,1.866352783203125,-0.18605056405067444,-0.14562484622001648,0.2995574176311493
1772455912062370600,1.87637060546875,-0.22730319201946259,-0.02773469127714634,0.2685646116733551
1772455912072388600,1.886388671875,-0.25990453362464905,0.07725857198238373,0.22700119018554688
1772455912082406400,1.896406494140625,-0.2793616056442261,0.14821556210517883,0.17858944833278656
1772455912092424700,1.9064248046875,-0.29732275009155273,0.19054384529590607,0.1379205882549286
1772455912102442500,1.9164423828125,-0.32119694352149963,0.2097684144973755,0.09943657368421555
1772455912112461600,1.926461669921875,-0.34869301319122314,0.21980826556682587,0.06985418498516083
1772455912122479600,1.936479736328125,-0.370561808347702,0.23290328681468964,0.03736095502972603
1772455912132497700,1.94649755859375,-0.3717346787452698,0.2449847161769867,-0.00022929816623218358
1772455912142515700,1.956515625,-0.360886812210083,0.2487349808216095,-0.040292561054229736
1772455912152533500,1.966533447265625,-0.3404049873352051,0.22222800552845,-0.07921066880226135
1772455912162551600,1.976551513671875,-0.3219125270843506,0.17235764861106873,-0.11484988778829575
1772455912172569600,1.986569580078125,-0.3006642162799835,0.10935498774051666,-0.1407877504825592
1772455912182588700,1.996588623046875,-0.27770963311195374,0.03989388793706894,-0.16604863107204437
1772455912192606700,2.006606689453125,-0.26124998927116394,-0.011486746370792389,-0.18813341856002808
1772455912202624500,2.01662451171875,-0.24564331769943237,-0.055209457874298096,-0.19852720201015472
1772455912212642600,2.026642578125,-0.23134852945804596,-0.07557625323534012,-0.19735968112945557
1772455912222660600,2.03666064453125,-0.22374175488948822,-0.07334692031145096,-0.17990025877952576
1772455912232678700,2.0466787109375,-0.2158430814743042,-0.04219033196568489,-0.15361592173576355
1772455912242696400,2.056696533203125,-0.20364554226398468,0.0031672974582761526,-0.13740099966526031
1772455912252715500,2.066715576171875,-0.17003856599330902,0.048290032893419266,-0.13756665587425232
1772455912262733800,2.07673388671875,-0.12291233986616135,0.10455277562141418,-0.14154382050037384
1772455912272751600,2.086751708984375,-0.07577625662088394,0.1490747034549713,-0.1482914686203003
1772455912282769700,2.096769775390625,-0.03159867227077484,0.17851302027702332,-0.1488291621208191
1772455912292787500,2.106787353515625,0.0037028591614216566,0.18907085061073303,-0.1436583697795868
1772455912302805800,2.1168056640625,0.027463581413030624,0.17697717249393463,-0.13578340411186218
1772455912312823600,2.126823486328125,0.03250041976571083,0.13699354231357574,-0.12494566291570663
1772455912322842600,2.136842529296875,0.028849758207798004,0.09622027724981308,-0.09977959096431732
1772455912332860700,2.146860595703125,0.0255756676197052,0.03074699267745018,-0.07156020402908325
1772455912342878500,2.15687841796875,0.022472020238637924,-0.025169001892209053,-0.04093065485358238
1772455912352896800,2.166896728515625,0.02172393724322319,-0.0788162499666214,0.01513101626187563
1772455912362914600,2.17691455078125,0.017286578193306923,-0.12203402817249298,0.0624612458050251
1772455912372932600,2.1869326171875,0.0238249059766531,-0.17780354619026184,0.10906949639320374
1772455912382950700,2.19695068359375,0.03374224901199341,-0.2261468470096588,0.15312351286411285
1772455912392969700,2.2069697265625,0.03656866401433945,-0.27094706892967224,0.21867933869361877
1772455912402987500,2.216987548828125,0.02965749427676201,-0.3493659794330597,0.3191524147987366
1772455912413005600,2.227005615234375,0.014913169667124748,-0.42609697580337524,0.4546111822128296
1772455912423023600,2.237023681640625,0.011108310893177986,-0.48277702927589417,0.5704547166824341
1772455912433041700,2.247041748046875,0.01618030108511448,-0.5200602412223816,0.6437526345252991
1772455912443059700,2.257059814453125,0.037585191428661346,-0.5206184387207031,0.6571882367134094
1772455912453077500,2.267077392578125,0.08069564402103424,-0.47995808720588684,0.6150645017623901
1772455912463096600,2.2770966796875,0.12927410006523132,-0.3966115415096283,0.5345067977905273
1772455912473114400,2.2871142578125,0.17454303801059723,-0.274398535490036,0.4419238865375519
1772455912483132700,2.297132568359375,0.2219845950603485,-0.14219309389591217,0.3479752838611603
1772455912493150700,2.307150634765625,0.2559660077095032,-0.023008113726973534,0.26015567779541016
1772455912503168500,2.31716845703125,0.2617935240268707,0.09538350999355316,0.177956685423851
1772455912513186800,2.327186767578125,0.23953402042388916,0.21539193391799927,0.09219783544540405
1772455912523204600,2.33720458984375,0.20617873966693878,0.3143504858016968,0.00809334684163332
1772455912533223700,2.3472236328125,0.15706604719161987,0.40207287669181824,-0.06864484399557114
1772455912543241500,2.357241455078125,0.10868094116449356,0.5039870142936707,-0.110739566385746
1772455912553259500,2.367259521484375,0.06423171609640121,0.6077285408973694,-0.11044714599847794
1772455912563277600,2.377277587890625,0.03615081310272217,0.6905355453491211,-0.10285767167806625
1772455912573295600,2.387295654296875,0.03776681795716286,0.7298688292503357,-0.09529243409633636
1772455912583313700,2.397313720703125,0.06569459289312363,0.7021541595458984,-0.0966612920165062
1772455912593331500,2.40733154296875,0.09748048335313797,0.5951887965202332,-0.10007893294095993
1772455912603350500,2.4173505859375,0.1123768761754036,0.45051684975624084,-0.08873333036899567
1772455912613368600,2.42736865234375,0.09961740672588348,0.29788681864738464,-0.06012618914246559
1772455912623386600,2.43738671875,0.06734468787908554,0.16193057596683502,-0.01768711768090725
1772455912633404400,2.447404296875,0.025599103420972824,0.06269320845603943,0.028019383549690247
1772455912643422700,2.457422607421875,-0.023086410015821457,0.029229523614048958,0.06216643378138542
1772455912653440800,2.467440673828125,-0.07068508863449097,0.06942674517631531,0.08304321765899658
1772455912663458600,2.47745849609375,-0.10410136729478836,0.17628873884677887,0.07965142279863358
1772455912673476600,2.4874765625,-0.12049179524183273,0.34649109840393066,0.058995410799980164
1772455912683495400,2.497495361328125,-0.11753328889608383,0.5175501704216003,0.01329902745783329
1772455912693513700,2.507513671875,-0.09668739140033722,0.6313976645469666,-0.056587643921375275
1772455912703531500,2.517531494140625,-0.04820188507437706,0.7034556269645691,-0.13016678392887115
1772455912713549600,2.527549560546875,0.013164537958800793,0.7200039625167847,-0.19362352788448334
1772455912723567400,2.5375673828125,0.09988877922296524,0.6939563751220703,-0.2356117218732834
1772455912733585700,2.547585693359375,0.19524139165878296,0.6363876461982727,-0.24435009062290192
1772455912743603700,2.557603759765625,0.2865681052207947,0.5387961268424988,-0.2191307544708252
1772455912753622500,2.56762255859375,0.36827710270881653,0.4114149808883667,-0.17221224308013916
1772455912763640600,2.577640625,0.42717182636260986,0.24182488024234772,-0.1099720373749733
1772455912773658600,2.58765869140625,0.44353270530700684,0.06039809435606003,-0.03387194499373436
1772455912783676700,2.5976767578125,0.4154861569404602,-0.09374566376209259,0.0452689453959465
1772455912793694500,2.607694580078125,0.3341028690338135,-0.21297138929367065,0.11927526444196701
1772455912803712300,2.617712158203125,0.2116672396659851,-0.28620752692222595,0.1726631224155426
1772455912813730600,2.62773046875,0.08624913543462753,-0.31639790534973145,0.18433281779289246
1772455912823749600,2.63774951171875,-0.012140818871557713,-0.2960638701915741,0.14662832021713257
1772455912833767400,2.647767333984375,-0.07301322370767593,-0.2278829663991928,0.0716363713145256
1772455912843785500,2.657785400390625,-0.09005985409021378,-0.10576930642127991,-0.01691506803035736
1772455912853803500,2.667803466796875,-0.07130560278892517,0.037211284041404724,-0.08760681748390198
1772455912863821600,2.677821533203125,-0.047575775533914566,0.18260496854782104,-0.15085342526435852
1772455912873839400,2.68783935546875,-0.031670309603214264,0.2877875864505768,-0.20006757974624634
1772455912883857400,2.697857421875,-0.026437200605869293,0.3341739773750305,-0.24437405169010162
1772455912893876200,2.707876220703125,-0.028984513133764267,0.34772494435310364,-0.2890448570251465
1772455912903894500,2.71789453125,-0.04704633727669716,0.35158467292785645,-0.31779980659484863
1772455912913912600,2.72791259765625,-0.0722438395023346,0.3427717387676239,-0.3424886465072632
1772455912923930400,2.737930419921875,-0.10632484406232834,0.31150463223457336,-0.37557095289230347
1772455912933948400,2.747948486328125,-0.1327441930770874,0.26324522495269775,-0.4118775725364685
1772455912943966500,2.757966552734375,-0.14278644323349,0.20099516212940216,-0.4466070532798767
1772455912953984500,2.767984619140625,-0.12512889504432678,0.15341351926326752,-0.4587377607822418
1772455912964003300,2.77800341796875,-0.08323310315608978,0.12154560536146164,-0.44722169637680054
1772455912974021400,2.788021484375,-0.02256389893591404,0.08258143067359924,-0.41077500581741333
1772455912984039400,2.798039306640625,0.0433243028819561,0.0496988482773304,-0.3589027523994446
1772455912994057500,2.808057373046875,0.09231634438037872,0.0365484245121479,-0.2933485209941864
1772455913004075500,2.818075439453125,0.12477628886699677,0.02768062986433506,-0.22891360521316528
1772455913014093300,2.82809326171875,0.1430988311767578,0.037030722945928574,-0.1758812814950943
1772455913024111600,2.838111572265625,0.1568966656923294,0.048950497061014175,-0.1419917643070221
1772455913034130400,2.84813037109375,0.17063432931900024,0.03656946122646332,-0.11994185298681259
1772455913044148500,2.8581484375,0.1974582076072693,0.00698014535009861,-0.10457141697406769
1772455913054166300,2.868166259765625,0.2228144407272339,-0.02057371847331524,-0.08527015894651413
1772455913064184300,2.878184326171875,0.23787328600883484,-0.04905835539102554,-0.05471091717481613
1772455913074202600,2.88820263671875,0.24282462894916534,-0.06428870558738708,-0.01528547890484333
1772455913084220400,2.898220458984375,0.23337173461914062,-0.07237432897090912,0.018385665491223335
1772455913094238500,2.908238525390625,0.21344304084777832,-0.08009803295135498,0.04446253925561905
1772455913104257300,2.91825732421875,0.18968524038791656,-0.09816811233758926,0.04321618005633354
1772455913114275300,2.928275390625,0.1625915765762329,-0.11472950875759125,0.03170839324593544
1772455913124293400,2.93829345703125,0.12535259127616882,-0.12558482587337494,0.012251339852809906
1772455913134311400,2.9483115234375,0.09515181183815002,-0.11266689002513885,0.00646668765693903
1772455913144329500,2.95832958984375,0.07649743556976318,-0.08460357040166855,0.010934406891465187
1772455913154347500,2.968347412109375,0.07882663607597351,-0.05964255705475807,0.022175876423716545
1772455913164365600,2.978365478515625,0.09745891392230988,-0.04818909987807274,0.03858840465545654
1772455913174383400,2.98838330078125,0.14028121531009674,-0.04386545717716217,0.06005215272307396
1772455913184402400,2.99840234375,0.19562914967536926,-0.04192214831709862,0.0916401743888855
1772455913194420200,3.008420166015625,0.24765853583812714,-0.06750047951936722,0.13315431773662567
1772455913204438500,3.0184384765625,0.27711760997772217,-0.0989508181810379,0.1903553009033203
1772455913214456300,3.028456298828125,0.28661444783210754,-0.1069653332233429,0.26848071813583374
1772455913224474400,3.038474365234375,0.26348862051963806,-0.12906263768672943,0.3463590145111084
1772455913234492400,3.048492431640625,0.20796652138233185,-0.17077013850212097,0.408780038356781
1772455913244510500,3.058510498046875,0.1371767669916153,-0.23136930167675018,0.4568096101284027
1772455913254529500,3.068529541015625,-0.026099776849150658,-0.34720084071159363,0.4792416989803314
1772455913264547300,3.07854736328125,-0.2769887149333954,-0.424503356218338,0.5316497683525085
1772455913274565400,3.0885654296875,-0.3652956783771515,-0.4151681661605835,0.6115890741348267
1772455913284583400,3.09858349609375,-0.4020768702030182,-0.4704223573207855,0.5909349322319031
1772455913294601500,3.1086015625,-0.43413200974464417,-0.5340501070022583,0.5047891139984131
1772455913304619300,3.118619384765625,-0.43865352869033813,-0.5545673370361328,0.3870992362499237
1772455913314637300,3.12863720703125,-0.3987268805503845,-0.527134120464325,0.26570889353752136
1772455913324656400,3.138656494140625,-0.3425123393535614,-0.45146092772483826,0.15361033380031586
1772455913334674400,3.14867431640625,-0.28450629115104675,-0.3538856506347656,0.05703878402709961
1772455913344692500,3.1586923828125,-0.23183269798755646,-0.27880048751831055,-0.01149739883840084
1772455913354710300,3.168710205078125,-0.2003972828388214,-0.22781185805797577,-0.053692787885665894
1772455913364728600,3.178728515625,-0.18936699628829956,-0.1717350035905838,-0.08499132096767426
1772455913374746400,3.188746337890625,-0.21355701982975006,-0.10666492581367493,-0.1216912791132927
1772455913384764400,3.198764404296875,-0.25030386447906494,-0.03874633088707924,-0.15627935528755188
1772455913394783500,3.208783447265625,-0.26991429924964905,0.027355192229151726,-0.18428196012973785
1772455913404801300,3.21880126953125,-0.26307451725006104,0.10712139308452606,-0.20097172260284424
1772455913414819600,3.228819580078125,-0.23137730360031128,0.22098352015018463,-0.19171643257141113
1772455913424837400,3.23883740234375,-0.17843285202980042,0.3062150478363037,-0.17263035476207733
1772455913434855400,3.24885546875,-0.12527935206890106,0.3440098464488983,-0.12361461669206619
1772455913444873200,3.258873291015625,-0.08153320848941803,0.3542473018169403,-0.052436310797929764
1772455913454891500,3.2688916015625,-0.05373673141002655,0.32931265234947205,0.030844198539853096
1772455913464910600,3.27891064453125,-0.03813327103853226,0.27325496077537537,0.11693274229764938
1772455913474928400,3.288928466796875,-0.03356727957725525,0.16030073165893555,0.19491809606552124
1772455913484946400,3.298946533203125,-0.05379718542098999,-0.002805373864248395,0.26882266998291016
1772455913494964500,3.308964599609375,-0.11194278299808502,-0.16466964781284332,0.3338160514831543
1772455913504982500,3.318982421875,-0.18861225247383118,-0.2975890636444092,0.3688523471355438
1772455913515000300,3.329000244140625,-0.2490481734275818,-0.37088513374328613,0.37239912152290344
1772455913525018400,3.339018310546875,-0.2843611538410187,-0.3965579867362976,0.3472823202610016
1772455913535037400,3.349037353515625,-0.30631518363952637,-0.35714879631996155,0.312129408121109
1772455913545055500,3.359055419921875,-0.31978997588157654,-0.2540317475795746,0.2845483720302582
1772455913555073500,3.369073486328125,-0.3257075250148773,-0.11607946455478668,0.2795637249946594
1772455913565091300,3.37909130859375,-0.32366034388542175,0.009736250154674053,0.2727143466472626
1772455913575109400,3.389109375,-0.33728188276290894,0.09106972068548203,0.2513400912284851
1772455913585127400,3.39912744140625,-0.37018126249313354,0.10759570449590683,0.20708447694778442
1772455913595145500,3.4091455078125,-0.4243760406970978,0.06453292071819305,0.13543665409088135
1772455913605164500,3.41916455078125,-0.46734535694122314,-0.0162974800914526,0.05078355222940445
1772455913615182300,3.429182373046875,-0.48538002371788025,-0.11312069743871689,-0.02219398505985737
1772455913625200400,3.439200439453125,-0.4778920114040375,-0.18468037247657776,-0.06534704566001892
1772455913635218400,3.449218505859375,-0.44023382663726807,-0.20947812497615814,-0.07483162730932236
1772455913645236500,3.459236572265625,-0.36363306641578674,-0.18765245378017426,-0.05403447151184082
1772455913655254300,3.469254150390625,-0.2575069069862366,-0.15164704620838165,-0.004295678809285164
1772455913665272600,3.4792724609375,-0.1509423702955246,-0.11721184104681015,0.06657982617616653
1772455913675290400,3.489290283203125,-0.07210375368595123,-0.08341899514198303,0.13855601847171783
1772455913685309400,3.499309326171875,-0.03127483278512955,-0.07332028448581696,0.1862764060497284
1772455913695327500,3.509327392578125,-0.018215222284197807,-0.07043235749006271,0.19512182474136353
1772455913705345300,3.51934521484375,-0.015548866242170334,-0.05536072701215744,0.15582367777824402
1772455913715363600,3.529363525390625,-0.013891846872866154,-0.0161249078810215,0.08675220608711243
1772455913725381400,3.53938134765625,-0.0060083577409386635,0.03605440631508827,0.00942226406186819
1772455913735399400,3.5493994140625,0.010441455990076065,0.10426674783229828,-0.04905036836862564
1772455913745417500,3.55941748046875,0.035708729177713394,0.1915625035762787,-0.0703069195151329
1772455913755436500,3.5694365234375,0.06876388192176819,0.304027259349823,-0.05367228388786316
1772455913765454600,3.57945458984375,0.11196088790893555,0.3935329020023346,-0.010060623288154602
1772455913775472400,3.589472412109375,0.14989548921585083,0.42187586426734924,0.037463486194610596
1772455913785490400,3.599490478515625,0.18112558126449585,0.39867040514945984,0.07595787942409515
1772455913795508700,3.6095087890625,0.2110414057970047,0.37490302324295044,0.10329309850931168
1772455913805526800,3.61952685546875,0.24126188457012177,0.3841732442378998,0.11528291553258896
1772455913815544800,3.629544921875,0.28170251846313477,0.43890225887298584,0.12336640805006027
1772455913825564000,3.63956396484375,0.3012692928314209,0.4059640169143677,0.1043410524725914
1772455913835581700,3.649581787109375,0.2775101661682129,0.08498573303222656,0.04021080210804939
1772455913845600000,3.65960009765625,0.20569616556167603,-0.20230436325073242,-0.01884479448199272
1772455913855617800,3.66961767578125,0.08637243509292603,-0.32278522849082947,-0.04868737980723381
1772455913865635800,3.6796357421875,-0.038168422877788544,-0.31841418147087097,-0.06269986927509308
1772455913875653600,3.689653564453125,-0.1303364336490631,-0.23126304149627686,-0.07808361947536469
1772455913885672000,3.699671875,-0.20056691765785217,-0.1225442886352539,-0.1112184002995491
1772455913895691000,3.70969091796875,-0.2662021219730377,-0.004997687879949808,-0.16327200829982758
1772455913905708800,3.719708740234375,-0.3046134412288666,0.11036459356546402,-0.22670425474643707
1772455913915726800,3.729726806640625,-0.32843726873397827,0.1812475472688675,-0.2804678678512573
1772455913925745000,3.739744873046875,-0.3204589784145355,0.1648683100938797,-0.3086846172809601
1772455913935763000,3.749762939453125,-0.2764164209365845,0.14043700695037842,-0.3157883286476135
1772455913945780700,3.75978076171875,-0.21192477643489838,0.12843307852745056,-0.2981022596359253
1772455913955798800,3.769798828125,-0.1485774964094162,0.12920299172401428,-0.2548397481441498
1772455913965817900,3.77981787109375,-0.09527565538883209,0.135761559009552,-0.18739332258701324
1772455913975836000,3.7898359375,-0.06256990134716034,0.12547563016414642,-0.08833971619606018
1772455913985854000,3.79985400390625,-0.041855569928884506,0.11580223590135574,0.018627213314175606
1772455913995871700,3.809871826171875,-0.03244316205382347,0.10476475954055786,0.12653423845767975
1772455914005889800,3.819889892578125,-0.03273877128958702,0.09055972844362259,0.21168561279773712
1772455914015907800,3.829907958984375,-0.04773556441068649,0.0722624808549881,0.26587986946105957
1772455914025926000,3.83992578125,-0.06303861737251282,0.057737864553928375,0.2771908640861511
1772455914035945000,3.849945068359375,-0.07911026477813721,0.053466420620679855,0.26283350586891174
1772455914045962800,3.859962646484375,-0.10942795872688293,0.06548792868852615,0.21593283116817474
1772455914055980800,3.869980712890625,-0.14904195070266724,0.1027388945221901,0.14831916987895966
1772455914065998800,3.879998779296875,-0.1803026646375656,0.1594298779964447,0.055031027644872665
1772455914076017000,3.890016845703125,-0.19978740811347961,0.2013663947582245,-0.056530654430389404
1772455914086034700,3.90003466796875,-0.22635138034820557,0.2075502574443817,-0.16969050467014313
1772455914096053000,3.910052978515625,-0.2778041958808899,0.19440783560276031,-0.28516942262649536
1772455914106070800,3.92007080078125,-0.33192041516304016,0.1408146470785141,-0.3967505395412445
1772455914116089900,3.93008984375,-0.40146806836128235,0.05266560986638069,-0.5113234519958496
1772455914126108000,3.94010791015625,-0.4754925072193146,-0.015198926441371441,-0.6225980520248413
1772455914136125700,3.950125732421875,-0.531688392162323,-0.01739097386598587,-0.688524067401886
1772455914146144000,3.96014404296875,-0.5679183006286621,0.04435175284743309,-0.7040241956710815
1772455914156161800,3.970161865234375,-0.5688032507896423,0.15314987301826477,-0.6658653616905212
1772455914166179800,3.980179931640625,-0.5298295021057129,0.29121479392051697,-0.5977161526679993
1772455914176198000,3.990197998046875,-0.45153549313545227,0.3934367597103119,-0.5262105464935303
1772455914186216700,4.000216796875,-0.36138537526130676,0.3968488276004791,-0.4586693048477173
1772455914196235000,4.010235107421875,-0.2734943926334381,0.27088555693626404,-0.4011026918888092
1772455914206252800,4.020252685546875,-0.20259438455104828,0.015261244960129261,-0.35603347420692444
1772455914216270800,4.030270751953125,-0.14658518135547638,-0.29866498708724976,-0.30977970361709595
1772455914226289000,4.040288818359375,-0.06935536861419678,-0.5594486594200134,-0.2626745104789734
1772455914236307000,4.050306884765625,0.024628380313515663,-0.684035062789917,-0.18745458126068115
1772455914246324700,4.06032470703125,0.12829512357711792,-0.6452026963233948,-0.06632709503173828
1772455914256343800,4.07034375,0.23907889425754547,-0.47996261715888977,0.09719765931367874
1772455914266361900,4.08036181640625,0.3260055482387543,-0.2782718241214752,0.2617778182029724
1772455914276380000,4.0903798828125,0.3458159863948822,-0.11936048418283463,0.3692629933357239
1772455914286398000,4.10039794921875,0.2947024703025818,-0.049079395830631256,0.3826325833797455
1772455914296415700,4.110415771484375,0.20801737904548645,-0.04478824511170387,0.30715301632881165
1772455914306433800,4.120433837890625,0.11438010632991791,-0.02773682214319706,0.17583361268043518
1772455914316451800,4.130451904296875,0.03303518146276474,0.04090002924203873,0.0229782871901989
1772455914326471000,4.140470947265625,-0.01543381717056036,0.14713804423809052,-0.14015445113182068
1772455914336489000,4.150489013671875,-0.007394266780465841,0.25698599219322205,-0.2937663793563843
1772455914346506800,4.1605068359375,0.03615134581923485,0.32136523723602295,-0.42587247490882874
1772455914356525000,4.170525146484375,0.06245405599474907,0.3259485363960266,-0.5028985738754272
1772455914366542800,4.18054296875,0.05177078768610954,0.30051881074905396,-0.5139693021774292
1772455914376561000,4.190560791015625,0.019414709880948067,0.2547537386417389,-0.45796942710876465
1772455914386578700,4.20057861328125,-0.023455791175365448,0.2142244130373001,-0.3849748373031616
1772455914396597800,4.21059765625,-0.048172056674957275,0.18607214093208313,-0.3180149793624878
1772455914406615800,4.22061572265625,-0.04430807754397392,0.16277480125427246,-0.281161367893219
1772455914416633900,4.2306337890625,-0.026729881763458252,0.13711577653884888,-0.28030410408973694
1772455914426652000,4.24065185546875,-0.00012863067968282849,0.09228146076202393,-0.29467904567718506
1772455914436670000,4.250669921875,0.0383487194776535,0.03521684184670448,-0.3093527853488922
1772455914446688000,4.26068798828125,0.07884234935045242,-0.022349780425429344,-0.322254478931427
1772455914456705800,4.270705810546875,0.10177350044250488,-0.06997242569923401,-0.3234401047229767
1772455914466724900,4.280724853515625,0.10447820276021957,-0.1114833876490593,-0.30880817770957947
1772455914476742700,4.29074267578125,0.07583750784397125,-0.16052576899528503,-0.28425756096839905
1772455914486761000,4.300760986328125,0.04427957907319069,-0.19845902919769287,-0.26121002435684204
1772455914496779000,4.310779052734375,0.029823143035173416,-0.21932995319366455,-0.24072019755840302
1772455914506796800,4.320796875,0.05036916583776474,-0.19942282140254974,-0.22004634141921997
1772455914516814800,4.33081494140625,0.07988790422677994,-0.1570170521736145,-0.19925984740257263
1772455914526833000,4.3408330078125,0.10513174533843994,-0.12105239182710648,-0.17528286576271057
1772455914536851000,4.350850830078125,0.11084023118019104,-0.09165988117456436,-0.15602555871009827
1772455914546869800,4.360869873046875,0.10844125598669052,-0.06847706437110901,-0.1426042914390564
1772455914556887800,4.3708876953125,0.09226840734481812,-0.04922587051987648,-0.1325276792049408
1772455914566905900,4.38090576171875,0.06335260719060898,-0.033850375562906265,-0.12267984449863434
1772455914576924000,4.390923828125,0.02991635352373123,-0.02582547254860401,-0.09348494559526443
1772455914586942000,4.40094189453125,0.006231796927750111,-0.009735452011227608,-0.051528703421354294
1772455914596959700,4.410959716796875,-0.04072186350822449,0.01555206160992384,0.009494701400399208
1772455914606978000,4.42097802734375,-0.09247933328151703,0.02142486535012722,0.05351036414504051
1772455914616996900,4.430996826171875,-0.13277961313724518,0.012537629343569279,0.0696677640080452
1772455914627015000,4.441014892578125,-0.15107180178165436,-0.010325607843697071,0.05308479070663452
1772455914637032700,4.45103271484375,-0.14317233860492706,-0.03287805616855621,0.008728777058422565
1772455914647050800,4.46105078125,-0.11497052758932114,-0.0638040155172348,-0.06275126338005066
1772455914657068800,4.47106884765625,-0.07537118345499039,-0.11709253489971161,-0.12781254947185516
1772455914667086800,4.4810869140625,-0.04760853201150894,-0.16790086030960083,-0.17620033025741577
1772455914677105000,4.49110498046875,-0.033610690385103226,-0.20952606201171875,-0.18883010745048523
1772455914687123700,4.501123779296875,-0.029287846758961678,-0.22564697265625,-0.18114714324474335
1772455914697141800,4.511141845703125,-0.024958878755569458,-0.2040274292230606,-0.15358848869800568
1772455914707159800,4.521159912109375,-0.003480485174804926,-0.1690356284379959,-0.1307729333639145
1772455914717177900,4.531177734375,0.017045563086867332,-0.14552150666713715,-0.12034052610397339
1772455914727195600,4.541195556640625,0.022732209414243698,-0.13372211158275604,-0.12562690675258636
1772455914737214000,4.5512138671875,-0.010447581298649311,-0.12131018191576004,-0.16352714598178864
1772455914747232000,4.56123193359375,-0.07044513523578644,-0.10076096653938293,-0.23316295444965363
1772455914757250800,4.571250732421875,-0.1347397118806839,-0.04790227860212326,-0.32068106532096863
1772455914767268900,4.581268798828125,-0.18521779775619507,0.030469225719571114,-0.4113233685493469
1772455914777286700,4.59128662109375,-0.2183413952589035,0.10889852046966553,-0.46966683864593506
1772455914787305000,4.601304931640625,-0.23350515961647034,0.18305131793022156,-0.48333045840263367
1772455914797323500,4.611323486328125,-0.23692013323307037,0.24272556602954865,-0.44473057985305786
1772455914807341300,4.62134130859375,-0.21747879683971405,0.2712584137916565,-0.3724236488342285
1772455914817359400,4.631359375,-0.19286826252937317,0.2557809054851532,-0.28040796518325806
1772455914827378400,4.64137841796875,-0.16307733952999115,0.20045773684978485,-0.17501601576805115
1772455914837396500,4.651396484375,-0.1415797621011734,0.13250930607318878,-0.07270003855228424
1772455914847414500,4.66141455078125,-0.14352893829345703,0.0766385868191719,0.02383236214518547
1772455914857432300,4.671432373046875,-0.1641777604818344,0.022495189681649208,0.09381704032421112
1772455914867450400,4.681450439453125,-0.19770509004592896,0.0014591459184885025,0.12328092008829117
1772455914877468400,4.691468505859375,-0.2447437047958374,-0.0036946034524589777,0.09949170053005219
1772455914887486500,4.701486572265625,-0.2890339493751526,0.01625566929578781,0.025378594174981117
1772455914897504300,4.711504150390625,-0.3094169795513153,0.048881787806749344,-0.08122774213552475
1772455914907523300,4.7215234375,-0.31466978788375854,0.08006474375724792,-0.18395066261291504
1772455914917541400,4.731541259765625,-0.2900027930736542,0.12303431332111359,-0.24382731318473816
1772455914927559400,4.741559326171875,-0.2479403018951416,0.17773324251174927,-0.23819978535175323
1772455914937577500,4.751577392578125,-0.16482436656951904,0.2274792343378067,-0.18389952182769775
1772455914947595300,4.76159521484375,-0.05161392688751221,0.23997823894023895,-0.08119472116231918
1772455914957613600,4.771613525390625,0.05793493986129761,0.21876190602779388,0.04921947792172432
1772455914967631400,4.78163134765625,0.11196061968803406,0.13722389936447144,0.15408970415592194
1772455914977650400,4.791650390625,0.1106354370713234,0.007485613226890564,0.21870145201683044
1772455914987668500,4.80166845703125,0.08428239077329636,-0.1250455379486084,0.2522799074649811
1772455914997686300,4.811686279296875,0.04874676838517189,-0.23619788885116577,0.2607937753200531
1772455915007704600,4.82170458984375,0.005081844050437212,-0.32380762696266174,0.2648841142654419
1772455915017722400,4.831722412109375,-0.060447096824645996,-0.38122430443763733,0.2802324593067169
1772455915027740400,4.841740478515625,-0.15939019620418549,-0.40877020359039307,0.27422118186950684
1772455915037758500,4.851758544921875,-0.2822226285934448,-0.4293462932109833,0.2263287454843521
1772455915047777500,4.861777587890625,-0.39126336574554443,-0.4424130916595459,0.11270790547132492
1772455915057795600,4.871795654296875,-0.44923800230026245,-0.389729380607605,-0.0275043286383152
1772455915067813400,4.8818134765625,-0.4776270091533661,-0.25199654698371887,-0.15937741100788116
1772455915077831400,4.89183154296875,-0.4958113431930542,-0.08510823547840118,-0.27200648188591003
1772455915087849500,4.901849365234375,-0.48543062806129456,0.07239164412021637,-0.35266298055648804
1772455915097867500,4.911867431640625,-0.44391965866088867,0.20290863513946533,-0.39941316843032837
1772455915107885300,4.92188525390625,-0.377655953168869,0.27741774916648865,-0.40456318855285645
1772455915117904400,4.931904296875,-0.2983672618865967,0.28973594307899475,-0.37056687474250793
1772455915127922400,4.94192236328125,-0.20967386662960052,0.23771455883979797,-0.31159305572509766
1772455915137940500,4.9519404296875,-0.12278717011213303,0.13852299749851227,-0.22882571816444397
1772455915147958500,4.96195849609375,-0.03501071408390999,0.0005576659459620714,-0.12558002769947052
1772455915157976300,4.971976318359375,0.0241940189152956,-0.14950533211231232,-0.012685168534517288
1772455915167994600,4.98199462890625,0.06575637310743332,-0.28291240334510803,0.1034718006849289
1772455915178012400,4.992012451171875,0.08962948620319366,-0.3616034686565399,0.20699313282966614
1772455915188031500,5.002031494140625,0.09524928778409958,-0.37857019901275635,0.2813943922519684
1772455915198049500,5.012049560546875,0.08888353407382965,-0.34855160117149353,0.3140990734100342
1772455915208067300,5.0220673828125,0.07608304917812347,-0.3047247529029846,0.3008687496185303
1772455915218085600,5.032085693359375,0.059836968779563904,-0.2532764673233032,0.24313782155513763
1772455915228103400,5.042103515625,0.05071404203772545,-0.1962941437959671,0.1565331518650055
1772455915238121500,5.05212158203125,0.053354036062955856,-0.13469922542572021,0.055511727929115295
1772455915248139300,5.06213916015625,0.058155182749032974,-0.06609619408845901,-0.040589239448308945
1772455915258157600,5.072157470703125,0.07395119220018387,-0.016817329451441765,-0.11458836495876312
1772455915268176400,5.08217626953125,0.11376358568668365,0.026610039174556732,-0.16232793033123016
1772455915278194400,5.0921943359375,0.17845496535301208,0.06900649517774582,-0.17347325384616852
1772455915288212500,5.10221240234375,0.24708887934684753,0.08413431793451309,-0.14497530460357666
1772455915298230500,5.11223046875,0.2864093780517578,0.09027450531721115,-0.07627958804368973
1772455915308248600,5.12224853515625,0.2976231575012207,0.06967335194349289,0.007935155183076859
1772455915318266400,5.132266357421875,0.2950582802295685,0.025129055604338646,0.08676818758249283
1772455915328284400,5.142284423828125,0.2783096432685852,-0.009965548291802406,0.1521645039319992
1772455915338303200,5.15230322265625,0.24410241842269897,-0.017559818923473358,0.1945580244064331
1772455915348321500,5.162321533203125,0.20302875339984894,-0.008992696180939674,0.1987365335226059
1772455915358339600,5.172339599609375,0.16525447368621826,-0.0010844392236322165,0.1707776039838791
1772455915368357400,5.182357421875,0.12560692429542542,0.01764077879488468,0.1112959012389183
1772455915378375400,5.19237548828125,0.10318098217248917,0.04478025436401367,0.026261432096362114
1772455915388393500,5.2023935546875,0.10669422149658203,0.06715187430381775,-0.06441174447536469
1772455915398411500,5.21241162109375,0.12223802506923676,0.07587745040655136,-0.1321290135383606
1772455915408430300,5.222430419921875,0.16259104013442993,0.077986940741539,-0.1807015985250473
1772455915418448400,5.232448486328125,0.21544866263866425,0.06707197427749634,-0.1925438791513443
1772455915428466400,5.242466552734375,0.2593897581100464,0.04151654988527298,-0.16927051544189453
1772455915438484500,5.252484375,0.28623467683792114,0.003151052165776491,-0.11873038113117218
1772455915448502500,5.26250244140625,0.3051716387271881,-0.032398685812950134,-0.05626087635755539
1772455915458520300,5.272520263671875,0.31959718465805054,-0.05109567567706108,0.01882934756577015
1772455915468538600,5.28253857421875,0.3375668525695801,-0.048400554805994034,0.08764862269163132
1772455915478556400,5.292556396484375,0.360029011964798,-0.04604552313685417,0.14242452383041382
1772455915488575500,5.302575439453125,0.38339880108833313,-0.06267483532428741,0.17687198519706726
1772455915498593300,5.31259326171875,0.3914774954319,-0.10729343444108963,0.19179952144622803
1772455915508611300,5.322611328125,0.37626203894615173,-0.15904398262500763,0.19731919467449188
1772455915518629400,5.33262939453125,0.34816864132881165,-0.19836874306201935,0.1931508183479309
1772455915528647400,5.3426474609375,0.32379430532455444,-0.21058440208435059,0.18435466289520264
1772455915538665500,5.35266552734375,0.30826833844184875,-0.19913920760154724,0.17345701158046722
1772455915548683500,5.36268359375,0.3107914328575134,-0.142523854970932,0.16672587394714355
1772455915558702600,5.37270263671875,0.33655086159706116,-0.04170616716146469,0.16710616648197174
1772455915568720400,5.382720458984375,0.38835039734840393,0.060392770916223526,0.1625329852104187
1772455915578738400,5.392738525390625,0.4508928656578064,0.13818663358688354,0.16222059726715088
1772455915588756200,5.402756103515625,0.48468679189682007,0.16361795365810394,0.18564309179782867
1772455915598774500,5.4127744140625,0.4894876778125763,0.1252191662788391,0.2180737406015396
1772455915608792600,5.42279248046875,0.4699762761592865,0.053398244082927704,0.2477690577507019
1772455915618810400,5.432810302734375,0.4074822962284088,-0.009327455423772335,0.2536466419696808
1772455915628829400,5.442829345703125,0.29848548769950867,-0.044382110238075256,0.21549314260482788
1772455915638847200,5.45284716796875,0.16899435222148895,-0.034325215965509415,0.1258671134710312
1772455915648865500,5.462865478515625,0.06565570831298828,0.013390107080340385,0.0013848437229171395
1772455915658883300,5.47288330078125,0.01272538211196661,0.08996930718421936,-0.13976508378982544
1772455915668901400,5.4829013671875,0.01986611634492874,0.1587052196264267,-0.26304149627685547
1772455915678919400,5.49291943359375,0.06699341535568237,0.19609200954437256,-0.33678680658340454
1772455915688937500,5.5029375,0.12506070733070374,0.1880527287721634,-0.3504576086997986
1772455915698956500,5.51295654296875,0.19213561713695526,0.16295403242111206,-0.30510610342025757
1772455915708974300,5.522974365234375,0.2638055384159088,0.14259043335914612,-0.22106313705444336
1772455915718992400,5.532992431640625,0.3291648328304291,0.12546683847904205,-0.13374634087085724
1772455915729010400,5.543010498046875,0.39018771052360535,0.07895846664905548,-0.05643770843744278
1772455915739028500,5.553028564453125,0.44404083490371704,-0.017484983429312706,0.028863605111837387
1772455915749046300,5.56304638671875,0.4811288118362427,-0.0843508318066597,0.14669010043144226
1772455915759064300,5.573064208984375,0.4740205705165863,-0.05107197165489197,0.2915972173213959
1772455915769082600,5.58308251953125,0.41783133149147034,0.023194268345832825,0.4264373481273651
1772455915779101400,5.593101318359375,0.31765732169151306,0.09062843769788742,0.4999277889728546
1772455915789119500,5.603119384765625,0.19795595109462738,0.1300347000360489,0.49727821350097656
1772455915799136300,5.61313623046875,0.07879068702459335,0.1420695185661316,0.42914044857025146
1772455915809154300,5.623154296875,-0.019654927775263786,0.17319256067276,0.31834548711776733
1772455915819172000,5.633172119140625,-0.08866488933563232,0.24649685621261597,0.2091742604970932
1772455915829190100,5.643190185546875,-0.1392417848110199,0.3418042063713074,0.10142462700605392
1772455915839208200,5.653208251953125,-0.1792248785495758,0.445128470659256,0.001609081868082285
1772455915849227300,5.663227294921875,-0.20612066984176636,0.5422605872154236,-0.09383168816566467
1772455915859245300,5.673245361328125,-0.21014072000980377,0.6116591095924377,-0.18113569915294647
1772455915869263000,5.68326318359375,-0.18551047146320343,0.6119936108589172,-0.27222514152526855
1772455915879281400,5.693281494140625,-0.13171249628067017,0.5291429162025452,-0.3488765060901642
1772455915889299200,5.70329931640625,-0.05397668108344078,0.37104785442352295,-0.39600059390068054
1772455915899317200,5.713317138671875,0.04770307242870331,0.15595844388008118,-0.3882763683795929
1772455915909335000,5.7233349609375,0.14966219663619995,-0.08635272830724716,-0.31636035442352295
1772455915919354000,5.73335400390625,0.21595066785812378,-0.3142508864402771,-0.1745276004076004
1772455915929372400,5.743372314453125,0.21671873331069946,-0.4759862422943115,0.008477107621729374
1772455915939390200,5.75339013671875,0.16093562543392181,-0.5471081137657166,0.18466651439666748
1772455915949408300,5.763408203125,0.08249007910490036,-0.5499686002731323,0.30704569816589355
1772455915959426000,5.773426025390625,0.013826599344611168,-0.5256528854370117,0.3475973904132843
1772455915969444400,5.7834443359375,-0.02918691374361515,-0.46585479378700256,0.309630811214447
1772455915979462100,5.793462158203125,-0.052687980234622955,-0.3604431450366974,0.21830037236213684
1772455915989481200,5.803481201171875,-0.07602179795503616,-0.24826599657535553,0.11199897527694702
1772455915999499300,5.813499267578125,-0.08826647698879242,-0.18109682202339172,0.012430304661393166
1772455916009517300,5.823517333984375,-0.09537924826145172,-0.14459580183029175,-0.06889864057302475
1772455916019535400,5.833535400390625,-0.10039504617452621,-0.11751757562160492,-0.12275494635105133
1772455916029553200,5.84355322265625,-0.08973681181669235,-0.1050124391913414,-0.1533309668302536
1772455916039571200,5.8535712890625,-0.0660538524389267,-0.1011258214712143,-0.15655285120010376
1772455916049589200,5.86358935546875,-0.02882792055606842,-0.09911193698644638,-0.14008866250514984
1772455916059608300,5.8736083984375,0.018507637083530426,-0.10772566497325897,-0.10889612138271332
1772455916069626400,5.88362646484375,0.056830260902643204,-0.14502643048763275,-0.07464361190795898
1772455916079644200,5.89364404296875,0.08277130872011185,-0.18546147644519806,-0.027153324335813522
1772455916089662200,5.903662109375,0.08041681349277496,-0.21196284890174866,0.014025271870195866
1772455916099680300,5.91368017578125,0.0620279498398304,-0.1993570476770401,0.04199272394180298
1772455916109698300,5.9236982421875,0.033904172480106354,-0.15009282529354095,0.057609498500823975
1772455916119716000,5.933716064453125,-0.007374825421720743,-0.07291415333747864,0.0526333823800087
1772455916129734400,5.943734375,-0.04351099207997322,0.0030509172938764095,0.018087124451994896
1772455916139753200,5.953753173828125,-0.0589248351752758,0.05959062650799751,-0.034016288816928864
1772455916149771300,5.963771240234375,-0.049744121730327606,0.09783574938774109,-0.08770215511322021
1772455916159789300,5.973789306640625,-0.019955331459641457,0.10540258884429932,-0.12075464427471161
1772455916169807000,5.98380712890625,0.024893632158637047,0.07397542148828506,-0.11806858330965042
1772455916179825400,5.993825439453125,0.0688224732875824,0.018986208364367485,-0.06926882266998291
1772455916189843200,6.00384326171875,0.09914948791265488,-0.04368596151471138,0.006081594619899988
1772455916199861200,6.013861328125,0.1065988838672638,-0.11686776578426361,0.09055972844362259
1772455916209880000,6.023880126953125,0.07893688976764679,-0.1945796012878418,0.16634663939476013
1772455916219898000,6.033898193359375,0.02648220770061016,-0.24624891579151154,0.23003479838371277
1772455916229916400,6.04391650390625,-0.04661969840526581,-0.2561068832874298,0.252134770154953
1772455916239934200,6.053934326171875,-0.11491300165653229,-0.24017319083213806,0.2286939024925232
1772455916249952300,6.0639521484375,-0.16359159350395203,-0.2034657746553421,0.16870726644992828
1772455916259970300,6.07397021484375,-0.20488311350345612,-0.15136076509952545,0.08400275558233261
1772455916269988400,6.08398828125,-0.2214796543121338,-0.09582692384719849,-0.013866014778614044
1772455916280006100,6.094006103515625,-0.2096237987279892,-0.05319690704345703,-0.09730684757232666
1772455916290025200,6.104025146484375,-0.17242929339408875,-0.024265125393867493,-0.14102742075920105
1772455916300043000,6.11404296875,-0.12396695464849472,-0.01625593565404415,-0.11830640584230423
1772455916310061300,6.124061279296875,-0.08244454115629196,-0.027771443128585815,-0.0538959875702858
1772455916320079400,6.134079345703125,-0.054838214069604874,-0.05759298801422119,0.03257365524768829
1772455916330097200,6.14409716796875,-0.06077546626329422,-0.12801681458950043,0.10550831258296967
1772455916340115200,6.154115234375,-0.1175929456949234,-0.22668667137622833,0.15851959586143494
1772455916350133200,6.16413330078125,-0.20938411355018616,-0.32331013679504395,0.17490710318088531
1772455916360152300,6.17415234375,-0.3129962682723999,-0.3822008967399597,0.17362451553344727
1772455916370170000,6.184170166015625,-0.4076266288757324,-0.39474278688430786,0.1416575312614441
1772455916380188200,6.194188232421875,-0.4893806278705597,-0.3544856607913971,0.07432802766561508
1772455916390206500,6.20420654296875,-0.5605772733688354,-0.2833523452281952,-0.0016863135388121009
1772455916400224300,6.214224365234375,-0.6297193765640259,-0.18131865561008453,-0.07826737314462662
1772455916410242300,6.2242421875,-0.6945963501930237,-0.07485906034708023,-0.1329340785741806
1772455916420260000,6.234260009765625,-0.7608158588409424,0.02678793855011463,-0.1584855169057846
1772455916430279200,6.244279052734375,-0.8349816799163818,0.10376767069101334,-0.15229366719722748
1772455916440297200,6.254297119140625,-0.929176926612854,0.1545397788286209,-0.1312733292579651
1772455916450315300,6.264315185546875,-1.0565561056137085,0.17195925116539001,-0.12516804039478302
1772455916460333000,6.2743330078125,-1.1772937774658203,0.19964653253555298,-0.13768009841442108
1772455916470351000,6.28435107421875,-1.2697021961212158,0.273462176322937,-0.17460030317306519
1772455916480369400,6.294369384765625,-1.3295745849609375,0.3923344910144806,-0.20688021183013916
1772455916490387200,6.30438720703125,-1.3469346761703491,0.5640506148338318,-0.234856978058815
1772455916500405200,6.3144052734375,-1.2968087196350098,0.7534511685371399,-0.25469914078712463
1772455916510424000,6.324424072265625,-1.1714006662368774,0.9011793732643127,-0.282581090927124
1772455916520442400,6.3344423828125,-0.9701980948448181,0.9494068026542664,-0.2967725396156311
1772455916530460200,6.344460205078125,-0.7301101088523865,0.8772162199020386,-0.27401238679885864
1772455916540478200,6.354478271484375,-0.47139042615890503,0.6868904829025269,-0.18916618824005127
1772455916550496300,6.364496337890625,-0.18184836208820343,0.3998827040195465,-0.033306289464235306
1772455916560514300,6.374514404296875,0.11533325165510178,0.10464838147163391,0.1914581060409546
1772455916570532400,6.384532470703125,0.37195491790771484,-0.141197070479393,0.4527626931667328
1772455916580551200,6.39455126953125,0.5386067628860474,-0.3469667434692383,0.7037408351898193
1772455916590569200,6.4045693359375,0.6144077777862549,-0.5203452110290527,0.8846563100814819
1772455916600587000,6.4145869140625,0.6243605613708496,-0.6586210131645203,0.9701472520828247
1772455916610605300,6.424605224609375,0.5810207724571228,-0.7441015839576721,0.9565781354904175
1772455916620623000,6.434623046875,0.5108273029327393,-0.7507722973823547,0.8710973262786865
1772455916630641200,6.44464111328125,0.415499210357666,-0.6918407678604126,0.7319865822792053
1772455916640659500,6.454659423828125,0.3022986054420471,-0.5623757243156433,0.5715426206588745
1772455916650678300,6.46467822265625,0.19473007321357727,-0.3601278066635132,0.40641382336616516
1772455916660696300,6.4746962890625,0.09096506237983704,-0.11086685955524445,0.24559831619262695
1772455916670714000,6.484714111328125,-0.0014183996245265007,0.1448993980884552,0.10851769149303436
1772455916680732200,6.494732177734375,-0.07321322709321976,0.34993937611579895,0.018853049725294113
1772455916690750200,6.504750244140625,-0.12639681994915009,0.4898519814014435,-0.02232527919113636
1772455916700768300,6.514768310546875,-0.15636563301086426,0.5509510040283203,-0.013706757687032223
1772455916710786000,6.5247861328125,-0.1612730473279953,0.5354013442993164,0.03025723807513714
1772455916720804000,6.53480419921875,-0.14569835364818573,0.4507195055484772,0.08924306184053421
1772455916730823200,6.5448232421875,-0.126626119017601,0.3301182687282562,0.15419089794158936
1772455916740841200,6.55484130859375,-0.10967722535133362,0.187726229429245,0.21122115850448608
1772455916750859300,6.564859375,-0.08132068812847137,0.04156368970870972,0.24655012786388397
1772455916760877000,6.574876953125,-0.03563442826271057,-0.06907281279563904,0.2675534188747406
1772455916770895400,6.584895263671875,0.010178335011005402,-0.13101287186145782,0.27329784631729126
1772455916780913200,6.5949130859375,0.05116092041134834,-0.16688406467437744,0.27050793170928955
1772455916790931200,6.60493115234375,0.09363327920436859,-0.17653748393058777,0.2775418758392334
1772455916800951000,6.614950927734375,0.13524331152439117,-0.16579855978488922,0.296517938375473
1772455916810968800,6.62496875,0.17239680886268616,-0.14451377093791962,0.32110533118247986
1772455916820987000,6.63498681640625,0.20046386122703552,-0.1324576437473297,0.33636149764060974
1772455916831005000,6.6450048828125,0.22236649692058563,-0.12662504613399506,0.3418028652667999
1772455916841023000,6.65502294921875,0.23044012486934662,-0.11645550280809402,0.33908432722091675
1772455916851040800,6.665040771484375,0.23666873574256897,-0.09183698147535324,0.325764000415802
1772455916861059000,6.67505908203125,0.2316257655620575,-0.06181090325117111,0.29555442929267883
1772455916871076900,6.685076904296875,0.22814129292964935,-0.034147582948207855,0.252319872379303
1772455916881096000,6.695095947265625,0.2320026010274887,-0.01318051666021347,0.18953797221183777
1772455916891114000,6.705114013671875,0.24783749878406525,-0.00572952488437295,0.126776322722435
1772455916901131800,6.7151318359375,0.28161144256591797,-0.02040114626288414,0.09101912379264832
1772455916911150000,6.725150146484375,0.3088907301425934,-0.04195623844861984,0.08707205206155777
1772455916921168000,6.73516796875,0.32854220271110535,-0.08668802678585052,0.11513644456863403
1772455916931186000,6.74518603515625,0.35194844007492065,-0.14450125396251678,0.15004675090312958
1772455916941203700,6.75520361328125,0.36042821407318115,-0.21030770242214203,0.1669977754354477
1772455916951222800,6.765222900390625,0.34456804394721985,-0.26371100544929504,0.16759991645812988
1772455916961241000,6.775240966796875,0.3066052198410034,-0.30457639694213867,0.13062724471092224
1772455916971259000,6.7852587890625,0.24199345707893372,-0.33367037773132324,0.06011660024523735
1772455916981277000,6.79527685546875,0.17043538391590118,-0.37180471420288086,-0.03652258962392807
1772455916991295000,6.805294921875,0.0983438789844513,-0.39383384585380554,-0.15408331155776978
1772455917001313000,6.81531298828125,0.03231080248951912,-0.4082777798175812,-0.27129462361335754
1772455917011330800,6.825330810546875,-0.013880128972232342,-0.39999666810035706,-0.3640708923339844
1772455917021350000,6.835349853515625,-0.02702362835407257,-0.32620155811309814,-0.4062228798866272
1772455917031368000,6.845367919921875,0.011534417048096657,-0.19153986871242523,-0.3873157501220703
1772455917041386000,6.855385986328125,0.09316270053386688,-0.022713568061590195,-0.3179691731929779
1772455917051404000,6.865404052734375,0.23240581154823303,0.12043160200119019,-0.20432890951633453
1772455917061421800,6.875421875,0.3943329155445099,0.23497256636619568,-0.04600983485579491
1772455917071440000,6.88543994140625,0.5139948725700378,0.23200607299804688,0.1276399791240692
1772455917081458000,6.8954580078125,0.5730030536651611,0.09004999697208405,0.29079243540763855
1772455917091477000,6.90547705078125,0.5629674792289734,-0.09852471202611923,0.423276424407959
1772455917101495000,6.9154951171875,0.4812158942222595,-0.2640779912471771,0.5110598206520081
1772455917111512800,6.925512939453125,0.3502669334411621,-0.34883949160575867,0.5240517854690552
1772455917121531100,6.93553125,0.2107178270816803,-0.3294508755207062,0.4460512399673462
1772455917131549000,6.945548828125,0.09070780128240585,-0.22142958641052246,0.29591765999794006
1772455917141567000,6.95556689453125,0.01948501728475094,-0.04260844737291336,0.09814680367708206
1772455917151584800,6.965584716796875,0.0016860472969710827,0.15740427374839783,-0.07947138696908951
1772455917161603000,6.97560302734375,0.018014952540397644,0.32401934266090393,-0.2166319042444229
1772455917171622100,6.9856220703125,0.0561402328312397,0.43038174510002136,-0.2914784550666809
1772455917181640000,6.995639892578125,0.11556307971477509,0.4881531596183777,-0.29531607031822205
1772455917191658000,7.005657958984375,0.1753465235233307,0.5002508163452148,-0.2416379302740097
1772455917201675800,7.01567578125,0.20174697041511536,0.47533032298088074,-0.13310585916042328
1772455917211694000,7.025694091796875,0.18941839039325714,0.4442778527736664,0.001231711939908564
1772455917221712000,7.0357119140625,0.15381112694740295,0.41216573119163513,0.1312064826488495
1772455917231730000,7.04572998046875,0.1270522177219391,0.38388773798942566,0.20640669763088226
1772455917241749000,7.0557490234375,0.09939450025558472,0.337761253118515,0.22570502758026123
1772455917251767000,7.06576708984375,0.06718649715185165,0.2796422839164734,0.1718255579471588
1772455917261785000,7.07578515625,0.03185193985700607,0.20399121940135956,0.05288878083229065
1772455917271803000,7.085802978515625,-0.012646553106606007,0.1025700494647026,-0.10714243352413177
1772455917281821000,7.095821044921875,-0.07041317969560623,0.005620335228741169,-0.2690642178058624
1772455917291839000,7.1058388671875,-0.12854519486427307,-0.07048454880714417,-0.4027447998523712
1772455917301857000,7.11585693359375,-0.1908000409603119,-0.10515278577804565,-0.4946262538433075
1772455917311874800,7.125874755859375,-0.2489544302225113,-0.08593008667230606,-0.5529603958129883
1772455917321894000,7.135893798828125,-0.28344982862472534,-0.04505535960197449,-0.5747064352035522
1772455917331912000,7.145911865234375,-0.2943882346153259,0.007525560446083546,-0.5642458200454712
1772455917341930000,7.155929931640625,-0.2852005958557129,0.06445196270942688,-0.5206943154335022
1772455917351948000,7.165947998046875,-0.23570866882801056,0.10371094942092896,-0.4583859443664551
1772455917361965800,7.1759658203125,-0.15996329486370087,0.12393632531166077,-0.3812887668609619
1772455917371984100,7.185984130859375,-0.07093515992164612,0.1426072120666504,-0.28591883182525635
1772455917382002000,7.196001953125,0.0016231966437771916,0.17712843418121338,-0.175231471657753
1772455917392021000,7.20602099609375,0.03389991074800491,0.20998118817806244,-0.06457605957984924
1772455917402038800,7.216038818359375,0.03260454908013344,0.21798266470432281,0.0177539624273777
1772455917412056800,7.226056884765625,0.009137039072811604,0.19108793139457703,0.052267998456954956
1772455917422075100,7.2360751953125,-0.013221795670688152,0.14574068784713745,0.036673858761787415
1772455917432093000,7.246093017578125,-0.03136378154158592,0.07846657931804657,-0.030365895479917526
1772455917442111000,7.256111083984375,-0.023024093359708786,-0.0029971215408295393,-0.12332352995872498
1772455917452128800,7.266128662109375,-0.008898952975869179,-0.09720458090305328,-0.21747612953186035
1772455917462147000,7.27614697265625,-0.009979397058486938,-0.18223051726818085,-0.27662599086761475
1772455917472166000,7.286165771484375,-0.038724757730960846,-0.2271130383014679,-0.3042975664138794
1772455917482184000,7.296183837890625,-0.08835303038358688,-0.23450703918933868,-0.3105829060077667
1772455917492202000,7.306201904296875,-0.1413680464029312,-0.21942555904388428,-0.31864243745803833
1772455917502220000,7.316219970703125,-0.20066572725772858,-0.2138126790523529,-0.34259435534477234
1772455917512238000,7.326238037109375,-0.24938052892684937,-0.18596000969409943,-0.38009408116340637
1772455917522256000,7.336255859375,-0.27578017115592957,-0.13349653780460358,-0.42405006289482117
1772455917532274000,7.34627392578125,-0.2794486880302429,-0.10167096555233002,-0.4624110460281372
1772455917542292700,7.356292724609375,-0.2715364396572113,-0.08840496093034744,-0.46897706389427185
1772455917552311000,7.36631103515625,-0.25163596868515015,-0.08930377662181854,-0.4462893307209015
1772455917562328800,7.376328857421875,-0.2099609524011612,-0.09642107784748077,-0.38498416543006897
1772455917572347000,7.386346923828125,-0.15291577577590942,-0.11229991167783737,-0.29122650623321533
1772455917582365000,7.396364990234375,-0.09940648078918457,-0.1264737844467163,-0.16908223927021027
1772455917592383000,7.406383056640625,-0.04968286678195,-0.14088387787342072,-0.03888694569468498
1772455917602401000,7.416401123046875,-0.010151970200240612,-0.14637239277362823,0.08517295122146606
1772455917612418800,7.426418701171875,0.017416007816791534,-0.1666659414768219,0.18701116740703583
1772455917622438000,7.43643798828125,0.032945699989795685,-0.18577705323696136,0.2655816078186035
1772455917632456000,7.4464560546875,0.03370123729109764,-0.18951426446437836,0.31298828125
1772455917642474000,7.456473876953125,0.0364549458026886,-0.20161354541778564,0.33004847168922424
1772455917652492000,7.466491943359375,0.04306411370635033,-0.19712744653224945,0.31700432300567627
1772455917662509800,7.476509765625,0.043355464935302734,-0.17587941884994507,0.2919842004776001
1772455917672528100,7.486528076171875,0.048296425491571426,-0.15949511528015137,0.26207849383354187
1772455917682546000,7.4965458984375,0.04006406292319298,-0.1567366123199463,0.2394876927137375
1772455917692565000,7.50656494140625,0.024113858118653297,-0.1648976057767868,0.23662158846855164
1772455917702582800,7.516582763671875,0.0215351190418005,-0.1703895777463913,0.24593253433704376
1772455917712600800,7.526600830078125,0.029710756614804268,-0.17869678139686584,0.2811829447746277
1772455917722619000,7.536618896484375,0.0432065911591053,-0.2035432755947113,0.33753037452697754
1772455917732637000,7.546636962890625,0.039331160485744476,-0.22145915031433105,0.4189125597476959
1772455917742655000,7.556655029296875,0.03473667427897453,-0.2374756634235382,0.49439215660095215
1772455917752673000,7.566673095703125,0.01751534454524517,-0.24349947273731232,0.5535939335823059
1772455917762692000,7.576692138671875,-0.012180499732494354,-0.22814661264419556,0.5766342878341675
1772455917772710000,7.5867099609375,-0.053519416600465775,-0.2083366960287094,0.5666570067405701
1772455917782728000,7.59672802734375,-0.11826858669519424,-0.1707903891801834,0.5189760327339172
1772455917792745700,7.606745849609375,-0.20980675518512726,-0.11802304536104202,0.419164776802063
1772455917802763800,7.616763671875,-0.31145694851875305,-0.0803329199552536,0.25356969237327576
1772455917812781800,7.62678173828125,-0.39497047662734985,-0.09197226911783218,0.026572754606604576
1772455917822800000,7.6367998046875,-0.44105038046836853,-0.12994255125522614,-0.19354310631752014
1772455917832818000,7.64681787109375,-0.45390915870666504,-0.1698412299156189,-0.3675428628921509
1772455917842836700,7.656836669921875,-0.42292463779449463,-0.19353537261486053,-0.4757228493690491
1772455917852854800,7.666854736328125,-0.32498741149902344,-0.18272747099399567,-0.4874301254749298
1772455917862872800,7.676872802734375,-0.18036684393882751,-0.1731930822134018,-0.4088703393936157
1772455917872890600,7.686890625,-0.05654556676745415,-0.1851932853460312,-0.2174425721168518
1772455917882909000,7.696908935546875,0.004807005636394024,-0.17784109711647034,0.04920589551329613
1772455917892926700,7.7069267578125,-0.004939364735037088,-0.12405137717723846,0.3145432770252228
1772455917902944800,7.71694482421875,-0.04746631905436516,-0.09698673337697983,0.4977554678916931
1772455917912963800,7.7269638671875,-0.10666359215974808,-0.10588116198778152,0.5782606601715088
1772455917922981600,7.736981689453125,-0.1844436079263687,-0.10734003782272339,0.5732547640800476
1772455917932999000,7.7469990234375,-0.2773676812648773,-0.07971320301294327,0.5091021060943604
1772455917943016700,7.7570166015625,-0.35471415519714355,-0.002266882685944438,0.40749266743659973
1772455917953034800,7.76703466796875,-0.40734007954597473,0.1478603035211563,0.2936619818210602
1772455917963052800,7.777052734375,-0.4335932433605194,0.3309054970741272,0.1923111230134964
1772455917973072000,7.78707177734375,-0.4425654411315918,0.48746606707572937,0.10062141716480255
1772455917983090000,7.79708984375,-0.4527736008167267,0.5937402844429016,0.02743135765194893
1772455917993107700,7.807107666015625,-0.4504031240940094,0.6320762634277344,-0.043584227561950684
1772455918003126000,7.8171259765625,-0.4326787292957306,0.6001260280609131,-0.11608292907476425
1772455918013143800,7.827143798828125,-0.41536736488342285,0.4921361804008484,-0.196339949965477
1772455918023161900,7.837161865234375,-0.40116047859191895,0.3350839912891388,-0.2919623553752899
1772455918033179600,7.8471796875,-0.3699612617492676,0.15814489126205444,-0.4153306186199188
1772455918043198000,7.857197998046875,-0.32556450366973877,-0.009876066818833351,-0.5624582767486572
1772455918053216800,7.867216796875,-0.2773866057395935,-0.2223324030637741,-0.7031453847885132
1772455918063234800,7.87723486328125,-0.21761834621429443,-0.48481515049934387,-0.7599875926971436
1772455918073252900,7.8872529296875,-0.15212641656398773,-0.7043735980987549,-0.6947603821754456
1772455918083271000,7.89727099609375,-0.07702846825122833,-0.8384632468223572,-0.515783965587616
1772455918093289000,7.9072890625,0.015659386292099953,-0.8795347809791565,-0.2716251313686371
1772455918103306800,7.917306640625,0.11032863706350327,-0.7935538291931152,0.0022543659433722496
1772455918113324800,7.92732470703125,0.16854800283908844,-0.6070089936256409,0.26689988374710083
1772455918123343600,7.937343505859375,0.17851833999156952,-0.3707873821258545,0.49199292063713074
1772455918133362000,7.94736181640625,0.1685006022453308,-0.15711025893688202,0.6341886520385742
1772455918143379700,7.957379638671875,0.14535613358020782,0.012548282742500305,0.6851961612701416
1772455918153397800,7.967397705078125,0.11414627730846405,0.1747547686100006,0.6622589230537415
1772455918163415800,7.977415771484375,0.08939246088266373,0.31646421551704407,0.5768367052078247
1772455918173433900,7.987433837890625,0.07334345579147339,0.44834184646606445,0.4389549791812897
1772455918183452000,7.997451904296875,0.08769576251506805,0.5627914667129517,0.259309858083725
1772455918193469700,8.0074697265625,0.13244299590587616,0.6202083826065063,0.0835588127374649
1772455918203488800,8.01748876953125,0.18436585366725922,0.6010009050369263,-0.0488106831908226
1772455918213506800,8.0275068359375,0.22693142294883728,0.5108494162559509,-0.11649411916732788
1772455918223524900,8.03752490234375,0.2593194544315338,0.39598196744918823,-0.1206531822681427
1772455918233543000,8.04754296875,0.28383225202560425,0.2768920660018921,-0.07654910534620285
1772455918243560700,8.057560791015625,0.2766079008579254,0.16017156839370728,-0.0011291803093627095
1772455918253579000,8.0675791015625,0.25975728034973145,0.03881131112575531,0.06113898754119873
1772455918263596800,8.0775966796875,0.22499476373195648,-0.05559002608060837,0.09518164396286011
1772455918273616000,8.087615966796875,0.1913425326347351,-0.13797543942928314,0.08276492357254028
1772455918283633700,8.097633544921875,0.18396291136741638,-0.20234937965869904,0.03259176388382912
1772455918293652700,8.10765283203125,0.20504368841648102,-0.21387048065662384,-0.037942323833703995
1772455918303670800,8.1176708984375,0.23614302277565002,-0.16589735448360443,-0.11835353821516037
1772455918313688800,8.127688720703125,0.2563399076461792,-0.10123340785503387,-0.1794981211423874
1772455918323707000,8.137706787109375,0.24650219082832336,-0.041801244020462036,-0.21498660743236542
1772455918333724700,8.147724609375,0.20994524657726288,0.03628849983215332,-0.23018446564674377
1772455918343742700,8.15774267578125,0.16562359035015106,0.13508698344230652,-0.22381898760795593
1772455918353760800,8.1677607421875,0.1099291667342186,0.22133158147335052,-0.20431585609912872
1772455918363779800,8.17777978515625,0.05162084847688675,0.2803126275539398,-0.17677371203899384
1772455918373798000,8.1877978515625,-0.002656236756592989,0.29495787620544434,-0.1505546271800995
1772455918383815700,8.197815673828124,-0.052563875913619995,0.2767263948917389,-0.1367088407278061
1772455918393834000,8.207833984375,-0.10087920725345612,0.23100951313972473,-0.14287778735160828
1772455918403851800,8.217851806640626,-0.1404777467250824,0.17799369990825653,-0.17335021495819092
1772455918413869800,8.227869873046876,-0.1625811904668808,0.14272946119308472,-0.2108946591615677
1772455918423887600,8.2378876953125,-0.1819450408220291,0.12278850376605988,-0.24233487248420715
1772455918433906000,8.247906005859376,-0.20125135779380798,0.11433030664920807,-0.26016074419021606
1772455918443925000,8.257925048828126,-0.2116296887397766,0.13279426097869873,-0.26850390434265137
1772455918453942800,8.26794287109375,-0.1984928548336029,0.19165705144405365,-0.27690163254737854
1772455918463960800,8.2779609375,-0.15895582735538483,0.25917723774909973,-0.2800047695636749
1772455918473979000,8.287978759765625,-0.09009420871734619,0.361636221408844,-0.2801706790924072
1772455918483997000,8.297996826171875,-0.003937750123441219,0.4821077883243561,-0.26664528250694275
1772455918494014700,8.3080146484375,0.07579755783081055,0.5509909987449646,-0.23341435194015503
1772455918504032800,8.31803271484375,0.13790807127952576,0.4946640729904175,-0.18111972510814667
1772455918514051800,8.3280517578125,0.1833285391330719,0.3206528425216675,-0.1231384426355362
1772455918524070000,8.33806982421875,0.21200652420520782,0.09500880539417267,-0.07203957438468933
1772455918534088000,8.348087890625,0.2416941225528717,-0.1203804761171341,-0.03791196271777153
1772455918544105700,8.358105712890625,0.25731250643730164,-0.29704952239990234,0.006225138902664185
1772455918554123800,8.368123779296875,0.25212571024894714,-0.4180947244167328,0.05570667237043381
1772455918564141800,8.378141845703125,0.2290872484445572,-0.4581854045391083,0.11488823592662811
1772455918574160000,8.388159912109375,0.2069968581199646,-0.39894577860832214,0.17967389523983002
1772455918584177700,8.398177734375,0.18408727645874023,-0.22833196818828583,0.22736072540283203
1772455918594196700,8.40819677734375,0.16004027426242828,0.0153738958761096,0.25119975209236145
1772455918604214800,8.41821484375,0.13680419325828552,0.25813114643096924,0.23757953941822052
1772455918614232800,8.42823291015625,0.12742879986763,0.4311751127243042,0.1864846646785736
1772455918624251000,8.4382509765625,0.1413659155368805,0.4886849820613861,0.11803769320249557
1772455918634268700,8.4482685546875,0.1765417456626892,0.4596419036388397,0.04531848058104515
1772455918644287000,8.458286865234374,0.2337813377380371,0.3893855810165405,-0.017918014898896217
1772455918654304800,8.4683046875,0.30185624957084656,0.3113975524902344,-0.06023537740111351
1772455918664323800,8.47832373046875,0.38888248801231384,0.23917743563652039,-0.06871861219406128
1772455918674342000,8.488341796875,0.48932868242263794,0.18398074805736542,-0.0329291895031929
1772455918684359700,8.498359619140626,0.573829710483551,0.14031609892845154,0.041613224893808365
1772455918694378000,8.5083779296875,0.6070976853370667,0.09466925263404846,0.12310941517353058
1772455918704395800,8.518395751953125,0.598490834236145,0.026924291625618935,0.1892825812101364
1772455918714413800,8.528413818359375,0.547153890132904,-0.0551852248609066,0.21815283596515656
1772455918724432000,8.538431884765625,0.46090662479400635,-0.14856258034706116,0.21191304922103882
1772455918734450000,8.548449951171875,0.3462522327899933,-0.2156076580286026,0.17018158733844757
1772455918744468700,8.55846875,0.22403842210769653,-0.23763306438922882,0.09197013825178146
1772455918754486800,8.56848681640625,0.12389664351940155,-0.18470193445682526,-0.010422547347843647
1772455918764504800,8.5785048828125,0.06892979890108109,-0.049376070499420166,-0.12196824699640274
1772455918774523000,8.58852294921875,0.0609632171690464,0.13018250465393066,-0.23739230632781982
1772455918784541000,8.598541015625,0.08666964620351791,0.32237404584884644,-0.3326732814311981
1772455918794558700,8.608558837890625,0.12675900757312775,0.49577006697654724,-0.37979498505592346
1772455918804576800,8.61857666015625,0.1598447859287262,0.6083884835243225,-0.3795902132987976
1772455918814595800,8.628595947265625,0.1806856244802475,0.6407871842384338,-0.32669341564178467
1772455918824614100,8.6386142578125,0.185578390955925,0.588775098323822,-0.2431732416152954
1772455918834632000,8.6486318359375,0.19889286160469055,0.48498639464378357,-0.16434846818447113
1772455918844650000,8.65864990234375,0.2294478416442871,0.3598090410232544,-0.09064707905054092
1772455918854667800,8.668667724609374,0.26536643505096436,0.25191718339920044,-0.0357247069478035
1772455918864686000,8.67868603515625,0.30189353227615356,0.16504594683647156,0.0025417208671569824
1772455918874704000,8.688703857421874,0.3349524140357971,0.09050646424293518,0.014566958881914616
1772455918884722000,8.698721923828124,0.3681849539279938,0.011456652544438839,0.0013723268639296293
1772455918894741000,8.708740966796874,0.38692453503608704,-0.061773087829351425,-0.030711306259036064
1772455918904759000,8.718759033203124,0.3961974084377289,-0.11910241842269897,-0.0672200471162796
1772455918914777000,8.728777099609376,0.39654600620269775,-0.14090971648693085,-0.09569963067770004
1772455918924795000,8.738794921875,0.3876689076423645,-0.12828978896141052,-0.10577143728733063
1772455918934813000,8.74881298828125,0.37704262137413025,-0.09725145250558853,-0.10941437631845474
1772455918944831000,8.7588310546875,0.36805710196495056,-0.049557700753211975,-0.109115831553936
1772455918954849000,8.76884912109375,0.3591911792755127,-0.007907457649707794,-0.111758753657341
1772455918964868000,8.7788681640625,0.3606407344341278,0.01938275247812271,-0.12301700562238693
1772455918974886000,8.788885986328125,0.3778567612171173,0.015475362539291382,-0.13607928156852722
1772455918984904000,8.798904052734375,0.39920517802238464,-0.03031769208610058,-0.14413507282733917
1772455918994922000,8.808921875,0.3986557722091675,-0.10146030783653259,-0.14236193895339966
1772455919004940000,8.81893994140625,0.3719216287136078,-0.1720053106546402,-0.11342722922563553
1772455919014957800,8.828957763671875,0.3310394287109375,-0.22389701008796692,-0.06983500719070435
1772455919024976100,8.83897607421875,0.2768888473510742,-0.2580603063106537,-0.003619768423959613
1772455919034995200,8.8489951171875,0.21708038449287415,-0.26935210824012756,0.06319281458854675
1772455919045013000,8.859012939453125,0.1558481901884079,-0.27368560433387756,0.1076849177479744
1772455919055031000,8.869031005859375,0.10584600269794464,-0.26271578669548035,0.10972116887569427
1772455919065048800,8.879048828125,0.07545294612646103,-0.24188587069511414,0.08514206111431122
1772455919075067100,8.889067138671875,0.0626617819070816,-0.20966029167175293,0.0485805869102478
1772455919085085000,8.8990849609375,0.05940819904208183,-0.18867111206054688,0.014304903335869312
1772455919095103000,8.90910302734375,0.06774789094924927,-0.17843498289585114,-0.008829976432025433
1772455919105121000,8.91912109375,0.06480696052312851,-0.1755952537059784,-0.016948090866208076
1772455919115139800,8.929139892578124,0.041728273034095764,-0.17377179861068726,-0.0075998627580702305
1772455919125158100,8.939158203125,-0.002287389012053609,-0.16892483830451965,0.0004189152386970818
1772455919135176000,8.949176025390624,-0.05155586823821068,-0.15600664913654327,-0.00612207455560565
1772455919145194000,8.959194091796874,-0.09456592053174973,-0.137404203414917,-0.025612952187657356
1772455919155212000,8.9692119140625,-0.13009434938430786,-0.11102345585823059,-0.062313709408044815
1772455919165230000,8.97922998046875,-0.14968083798885345,-0.08135157823562622,-0.11020666360855103
1772455919175248000,8.989247802734376,-0.14113394916057587,-0.05824599415063858,-0.15328143537044525
1772455919185266000,8.999265869140626,-0.10722179710865021,-0.05694424360990524,-0.17616544663906097
1772455919195285000,9.009284912109376,-0.056895773857831955,-0.0790247768163681,-0.1553048938512802
1772455919205303000,9.019302978515626,-0.014824752695858479,-0.11247701197862625,-0.1045282706618309
1772455919215321000,9.029321044921875,0.021528728306293488,-0.15217648446559906,-0.02767024375498295
1772455919225339000,9.0393388671875,0.043832700699567795,-0.19029511511325836,0.05723133310675621
1772455919235357000,9.04935693359375,0.044801559299230576,-0.202093705534935,0.13703002035617828
1772455919245375000,9.059375,0.04999898374080658,-0.16327866911888123,0.18931587040424347
1772455919255393000,9.06939306640625,0.0559769831597805,-0.11181947588920593,0.20533664524555206
1772455919265411800,9.079411865234375,0.057008691132068634,-0.08568587899208069,0.18220841884613037
1772455919275430000,9.089429931640625,0.05564701557159424,-0.11238406598567963,0.15112321078777313
1772455919285448200,9.0994482421875,0.053290918469429016,-0.17788638174533844,0.12451449781656265
1772455919295466000,9.109466064453125,0.047079626470804214,-0.24995604157447815,0.11722729355096817
1772455919305484000,9.119484130859375,0.030612237751483917,-0.2887228727340698,0.12717260420322418
1772455919315501800,9.129501708984375,0.026283802464604378,-0.2793709337711334,0.12317386269569397
1772455919325520100,9.13952001953125,0.04411179944872856,-0.19501130282878876,0.13127093017101288
1772455919335538000,9.149537841796874,0.041318945586681366,-0.040229976177215576,0.1636107712984085
1772455919345557000,9.159556884765625,0.019467974081635475,0.10393784940242767,0.21211251616477966
1772455919355575000,9.169574951171874,-0.02646729350090027,0.21612510085105896,0.25645121932029724
1772455919365592800,9.1795927734375,-0.09303433448076248,0.3036581575870514,0.28182581067085266
1772455919375611100,9.189611083984374,-0.150107741355896,0.37446334958076477,0.2675001621246338
1772455919385629000,9.19962890625,-0.19848938286304474,0.4632624685764313,0.24209971725940704
1772455919395647000,9.20964697265625,-0.23955826461315155,0.49691417813301086,0.1967942863702774
1772455919405665000,9.2196650390625,-0.2564656138420105,0.4649756848812103,0.16222591698169708
1772455919415684000,9.22968408203125,-0.24618420004844666,0.36131665110588074,0.15672409534454346
1772455919425702000,9.239701904296876,-0.2177661508321762,0.20849542319774628,0.1854604035615921
1772455919435720000,9.249719970703126,-0.16220702230930328,0.03990986570715904,0.23848474025726318
1772455919445738000,9.259738037109376,-0.09332036226987839,-0.10713790357112885,0.31325939297676086
1772455919455756000,9.269756103515626,-0.04573419690132141,-0.19231565296649933,0.4091598093509674
1772455919465774000,9.279774169921875,-0.03545413166284561,-0.21212343871593475,0.5133453607559204
1772455919475792000,9.2897919921875,-0.06120556592941284,-0.19266638159751892,0.5919471979141235
1772455919485810000,9.299809814453125,-0.11107219010591507,-0.15327690541744232,0.6064733862876892
1772455919495829000,9.3098291015625,-0.17275100946426392,-0.1106860339641571,0.5505515336990356
1772455919505847000,9.319846923828125,-0.23412328958511353,-0.07069840282201767,0.42957958579063416
1772455919515865000,9.329864990234375,-0.2788683772087097,-0.058936022222042084,0.26089924573898315
1772455919525883000,9.3398828125,-0.2789030075073242,-0.06701312214136124,0.07269337773323059
1772455919535901200,9.349901123046875,-0.23343725502490997,-0.07361110299825668,-0.09294405579566956
1772455919545919000,9.3599189453125,-0.15617361664772034,-0.10771714150905609,-0.2127159982919693
1772455919555937000,9.36993701171875,-0.06824243813753128,-0.1822265237569809,-0.2672620713710785
1772455919565955800,9.379955810546875,0.013408216647803783,-0.29200655221939087,-0.2474966198205948
1772455919575974000,9.389973876953125,0.06840728968381882,-0.42802298069000244,-0.15892094373703003
1772455919585992000,9.399991943359375,0.10117748379707336,-0.5694764852523804,-0.022051239386200905
1772455919596010000,9.410010009765625,0.11385572701692581,-0.6857559680938721,0.13321158289909363
1772455919606028000,9.420028076171874,0.10016654431819916,-0.7287207841873169,0.28706371784210205
1772455919616045800,9.4300458984375,0.07791690528392792,-0.6936336159706116,0.4012574255466461
1772455919626064100,9.440064208984374,0.06934311985969543,-0.5813451409339905,0.45565009117126465
1772455919636082000,9.45008203125,0.08204267174005508,-0.40497517585754395,0.44048258662223816
1772455919646101000,9.46010107421875,0.11536706984043121,-0.18839840590953827,0.37235304713249207
1772455919656118800,9.470118896484376,0.15566256642341614,0.0352751649916172,0.25622379779815674
1772455919666137000,9.48013720703125,0.20002204179763794,0.21722419559955597,0.11970403045415878
1772455919676155100,9.490155029296876,0.2280515432357788,0.32496610283851624,-0.023069100454449654
1772455919686173000,9.5001728515625,0.23398399353027344,0.35180437564849854,-0.1470312625169754
1772455919696191000,9.51019091796875,0.22171960771083832,0.3233216106891632,-0.23364338278770447
1772455919706209000,9.520208984375,0.19813252985477448,0.2630678415298462,-0.26632675528526306
1772455919716228000,9.53022802734375,0.17767812311649323,0.19456414878368378,-0.24079982936382294
1772455919726246000,9.540245849609375,0.15075382590293884,0.11945076286792755,-0.17370255291461945
1772455919736264000,9.550263916015625,0.12934920191764832,0.045335788279771805,-0.10886496305465698
1772455919746282000,9.560281982421875,0.11353322118520737,0.0001917476038215682,-0.08010708540678024
1772455919756300000,9.570300048828125,0.10613788664340973,-0.005300755612552166,-0.08797885477542877
1772455919766318000,9.580318115234375,0.09743041545152664,0.005404619034379721,-0.12934467196464539
1772455919776336000,9.5903359375,0.09310703724622726,0.0427679717540741,-0.19085809588432312
1772455919786354200,9.600354248046875,0.10920718312263489,0.11163784563541412,-0.2536117732524872
1772455919796373000,9.610373046875,0.14860466122627258,0.1741265207529068,-0.3077434301376343
1772455919806390000,9.62039013671875,0.19790029525756836,0.20062896609306335,-0.33186209201812744
1772455919816408000,9.630407958984375,0.2337602972984314,0.1975431740283966,-0.31037038564682007
1772455919826426000,9.640426025390624,0.24454130232334137,0.1455119252204895,-0.24579910933971405
1772455919836444200,9.650444091796874,0.22332362830638885,0.056468334048986435,-0.17331425845623016
1772455919846462000,9.6604619140625,0.18392722308635712,-0.01065291091799736,-0.10265979915857315
1772455919856480000,9.67047998046875,0.15918885171413422,-0.002398442942649126,-0.05735490098595619
1772455919866498000,9.680498046875,0.14893169701099396,0.05468854680657387,-0.050398457795381546
1772455919876517000,9.69051708984375,0.14564189314842224,0.10461003333330154,-0.08802173286676407
1772455919886535200,9.70053515625,0.15385693311691284,0.1271960288286209,-0.14350976049900055
1772455919896553000,9.710552978515626,0.1634155511856079,0.1340579390525818,-0.20042391121387482
1772455919906571300,9.7205712890625,0.17371852695941925,0.1451457440853119,-0.2344985157251358
1772455919916589000,9.730589111328126,0.16786836087703705,0.1561427265405655,-0.22006206214427948
1772455919926607000,9.740607177734375,0.14757055044174194,0.16107730567455292,-0.18444520235061646
1772455919936625000,9.750625,0.1196073591709137,0.17216351628303528,-0.13598127663135529
1772455919946644000,9.76064404296875,0.10176204890012741,0.1949436515569687,-0.0997588187456131
1772455919956662000,9.770662109375,0.08855090290307999,0.2254677414894104,-0.07799413055181503
1772455919966680000,9.78068017578125,0.08334069699048996,0.27538150548934937,-0.06705813109874725
1772455919976698000,9.790697998046875,0.08507601171731949,0.3508469760417938,-0.053464557975530624
1772455919986716200,9.800716064453125,0.09538271278142929,0.43558448553085327,-0.04157806932926178
1772455919996734200,9.810734130859375,0.11104609072208405,0.4865477979183197,-0.05570241063833237
1772455920006752000,9.820751953125,0.128084197640419,0.4809706211090088,-0.09642241150140762
1772455920016770000,9.83077001953125,0.13674746453762054,0.42868342995643616,-0.14738360047340393
1772455920026788900,9.840788818359375,0.1381906270980835,0.34960007667541504,-0.20016957819461823
1772455920036807200,9.85080712890625,0.11389194428920746,0.260877400636673,-0.248866006731987
1772455920046825200,9.8608251953125,0.07779679447412491,0.19182775914669037,-0.29718321561813354
1772455920056843000,9.870843017578125,0.039323702454566956,0.13666623830795288,-0.32257696986198425
1772455920066861000,9.880861083984374,0.008159925229847431,0.12052428722381592,-0.3137565851211548
1772455920076879000,9.890879150390624,0.0010218549286946654,0.1179836243391037,-0.26052772998809814
1772455920086897200,9.900897216796874,0.025839053094387054,0.1290796846151352,-0.14933009445667267
1772455920096916000,9.910916015625,0.06421466916799545,0.14766162633895874,0.009468070231378078
1772455920106934000,9.92093408203125,0.10950412601232529,0.16478416323661804,0.18829134106636047
1772455920116952000,9.9309521484375,0.1606469303369522,0.1743030995130539,0.33915969729423523
1772455920126970000,9.94097021484375,0.225066676735878,0.17886587977409363,0.43410855531692505
1772455920136988200,9.95098828125,0.2926127016544342,0.20843149721622467,0.4759060740470886
1772455920147006000,9.961005859375,0.34935641288757324,0.2402333766222,0.4719531536102295
1772455920157024300,9.971024169921876,0.3862084150314331,0.2552376091480255,0.43554240465164185
1772455920167042000,9.9810419921875,0.4054412245750427,0.25423866510391235,0.37808606028556824
1772455920177061000,9.99106103515625,0.4107571840286255,0.2197968065738678,0.30451515316963196
1772455920187079000,10.001078857421875,0.40771904587745667,0.14484000205993652,0.2215784639120102
1772455920197097000,10.011096923828125,0.3943640887737274,0.056183379143476486,0.14695508778095245
1772455920207115300,10.021115234375,0.3670797348022461,-0.030219953507184982,0.07286994904279709
1772455920217133000,10.031133056640625,0.3468567430973053,-0.12319090962409973,0.00012650014832615852
1772455920227151000,10.041151123046875,0.33204397559165955,-0.2041075974702835,-0.07504121959209442
1772455920237169200,10.051169189453125,0.31979823112487793,-0.23169182240962982,-0.13544704020023346
1772455920247187200,10.061187255859375,0.29822662472724915,-0.19288370013237,-0.17803125083446503
1772455920257206000,10.0712060546875,0.278804749250412,-0.1057213693857193,-0.2101135551929474
1772455920267224000,10.08122412109375,0.2689414620399475,0.012161591090261936,-0.25227007269859314
1772455920277241900,10.091241943359375,0.2756776511669159,0.14843474328517914,-0.3043367266654968
1772455920287260200,10.10126025390625,0.3052999973297119,0.27687233686447144,-0.3656328320503235
1772455920297278200,10.1112783203125,0.3483092486858368,0.3663915693759918,-0.41652265191078186
1772455920307296000,10.1212958984375,0.41582703590393066,0.4090135991573334,-0.45642346143722534
1772455920317314000,10.13131396484375,0.48558932542800903,0.40308088064193726,-0.475393682718277
1772455920327332900,10.141332763671874,0.5428089499473572,0.3527820110321045,-0.4669647812843323
1772455920337351200,10.15135107421875,0.5827766060829163,0.27239876985549927,-0.4354854226112366
1772455920347369000,10.161368896484374,0.610896646976471,0.15452353656291962,-0.3912804126739502
1772455920357387000,10.171386962890624,0.6326956748962402,0.01702798530459404,-0.3266020715236664
1772455920367405000,10.181405029296876,0.6404513716697693,-0.11579104512929916,-0.2494007796049118
1772455920377423000,10.191423095703126,0.6490547060966492,-0.20872578024864197,-0.17400960624217987
1772455920387441200,10.201441162109376,0.6548076868057251,-0.25013473629951477,-0.10373438149690628
1772455920397459000,10.211458984375,0.6527413129806519,-0.26565244793891907,-0.05122243985533714
1772455920407478000,10.22147802734375,0.642121434211731,-0.2769104242324829,-0.03856976330280304
1772455920417496000,10.23149609375,0.6356694102287292,-0.2703617215156555,-0.06256084889173508
1772455920427514000,10.24151416015625,0.6344459056854248,-0.22826699912548065,-0.10680288076400757
1772455920437532000,10.251531982421875,0.6348589658737183,-0.1479407250881195,-0.15162573754787445
1772455920447550000,10.261550048828125,0.6442815065383911,-0.0421953909099102,-0.18107230961322784
1772455920457568300,10.271568359375,0.6706675887107849,0.03551378473639488,-0.18311522901058197
1772455920467586000,10.2815859375,0.691361129283905,0.05499081313610077,-0.14790157973766327
1772455920477605000,10.291605224609375,0.6935873031616211,0.012839632108807564,-0.08220618963241577
1772455920487623000,10.301622802734375,0.6742359399795532,-0.06271318346261978,-0.01429345179349184
1772455920497641000,10.311640869140625,0.6306021809577942,-0.14755776524543762,0.0460849367082119
1772455920507659000,10.321658935546875,0.5617043375968933,-0.22224745154380798,0.0887887254357338
1772455920517677000,10.331677001953125,0.4910317659378052,-0.29822105169296265,0.09577739238739014
1772455920527694800,10.34169482421875,0.4258058965206146,-0.3150128126144409,0.07670516520738602
1772455920537713200,10.351713134765625,0.3759334087371826,-0.27257534861564636,0.04026433080434799
1772455920547731200,10.361731201171875,0.3413168489933014,-0.20159703493118286,-0.010160225443542004
1772455920557750000,10.37175,0.323300838470459,-0.14007268846035004,-0.06394436210393906
1772455920567768000,10.38176806640625,0.3199356496334076,-0.09322235733270645,-0.09578058868646622
1772455920577785900,10.391785888671874,0.31560376286506653,-0.05377747863531113,-0.11295531690120697
1772455920587804200,10.40180419921875,0.3107680082321167,-0.034873295575380325,-0.11869149655103683
1772455920597822000,10.411822021484374,0.3095799684524536,-0.029634591192007065,-0.10560844838619232
1772455920607840000,10.421840087890626,0.3036152720451355,-0.0629427433013916,-0.08173774182796478
1772455920617858000,10.431858154296876,0.2990330457687378,-0.09734386205673218,-0.027174096554517746
1772455920627876000,10.4418759765625,0.309219628572464,-0.12101377546787262,0.04417971149086952
1772455920637895200,10.451895263671876,0.3346429765224457,-0.13326218724250793,0.10996778309345245
1772455920647913000,10.461912841796876,0.36210042238235474,-0.1486576497554779,0.16164694726467133
1772455920657931000,10.471930908203126,0.3716566562652588,-0.17274700105190277,0.2030857354402542
1772455920667949000,10.481948974609375,0.37861761450767517,-0.18161027133464813,0.23789991438388824
1772455920677967000,10.491967041015625,0.3823886513710022,-0.16676181554794312,0.2619900703430176
1772455920687985000,10.50198486328125,0.39315366744995117,-0.14301973581314087,0.27324485778808594
1772455920698003000,10.5120029296875,0.4091837704181671,-0.11729573458433151,0.2823992073535919
1772455920708022000,10.52202197265625,0.42299413681030273,-0.09520827233791351,0.3019651770591736
1772455920718040000,10.5320400390625,0.41931524872779846,-0.09948451071977615,0.3280513882637024
1772455920728058000,10.54205810546875,0.4031890034675598,-0.15877340734004974,0.3398773968219757
1772455920738076000,10.552075927734375,0.38776877522468567,-0.2689691483974457,0.33107221126556396
1772455920748094200,10.56209423828125,0.3500823676586151,-0.4125036895275116,0.29428568482398987
1772455920758112000,10.572112060546875,0.2918432950973511,-0.5335659384727478,0.25457581877708435
1772455920768130000,10.582130126953125,0.23134054243564606,-0.5887799263000488,0.20944350957870483
1772455920778148000,10.592148193359375,0.17532388865947723,-0.5536653399467468,0.16405685245990753
1772455920788167000,10.6021669921875,0.12874040007591248,-0.4265694320201874,0.11737669259309769
1772455920798185200,10.612185302734375,0.09301569312810898,-0.24944232404232025,0.08275453746318817
1772455920808203300,10.622203369140625,0.07459034770727158,-0.02002856880426407,0.0819941982626915
1772455920818221300,10.63222119140625,0.0829731822013855,0.24602600932121277,0.10538660734891891
1772455920828239000,10.642239013671874,0.11867392063140869,0.47141680121421814,0.13868145644664764
1772455920838257400,10.65225732421875,0.1585659384727478,0.6053919196128845,0.17391294240951538
1772455920848275500,10.662275390625,0.18701516091823578,0.6407901048660278,0.2207760512828827
1772455920858293200,10.672293212890626,0.20817716419696808,0.6090660095214844,0.264049768447876
1772455920868312300,10.682312255859374,0.2128046751022339,0.5326551198959351,0.29762476682662964
1772455920878330000,10.692330078125,0.22076886892318726,0.4521847665309906,0.29476267099380493
1772455920888348400,10.702348388671876,0.23340928554534912,0.4160182476043701,0.2672668695449829
1772455920898366200,10.7123662109375,0.26010003685951233,0.4456115663051605,0.22931627929210663
1772455920908384300,10.72238427734375,0.2981289029121399,0.5603157877922058,0.16313806176185608
1772455920918402300,10.73240234375,0.35435354709625244,0.7294528484344482,0.07526838779449463
1772455920928420400,10.74242041015625,0.37764742970466614,1.0468395948410034,0.17151103913784027
1772455920938439400,10.752439453125,0.33431991934776306,0.925444483757019,0.2470039278268814
1772455920948457200,10.762457275390625,0.3124508559703827,0.4875478148460388,0.28362134099006653
1772455920958475300,10.772475341796875,0.33107513189315796,0.03358512371778488,0.27997493743896484
1772455920968493300,10.782493408203125,0.3089389204978943,-0.20188145339488983,0.3022293746471405
1772455920978511400,10.792511474609375,0.2916209399700165,-0.2815677523612976,0.32436129450798035
1772455920988529200,10.802529052734375,0.33546480536460876,-0.3040086328983307,0.36887550354003906
1772455920998547200,10.812547119140625,0.38179102540016174,-0.33599424362182617,0.450729101896286
1772455921008565200,10.822565185546875,0.3863924443721771,-0.3727322816848755,0.5494410395622253
