time,seconds_elapsed,z,y,x
1772454502548732700,0.066732666015625,-0.1324105746269226,-0.07687215421311556,-0.14841389805055222
1772454502558750700,0.076750732421875,-0.19666998856961726,-0.1107855297308415,-0.13750736804297192
1772454502568768800,0.086768798828125,-0.17891162903904914,-0.16072021185345947,-0.11939233142868615
1772454502578786600,0.09678662109375,-0.08600771989226341,-0.1864940469920635,-0.07535005007921718
1772454502588803800,0.106803955078125,-0.02559153737425804,-0.19840543406009672,-0.05279241877445019
1772454502598821600,0.116821533203125,-0.015052023181319235,-0.22069785682372747,-0.036691251866379754
1772454502608839700,0.126839599609375,0.03291910378336906,-0.21772022925242782,-0.020995154061284847
1772454502618857700,0.136857666015625,0.027287819898128507,-0.20273681432791052,-0.05054332467340864
1772454502628875800,0.146875732421875,-0.01938976012468338,-0.17963066402859984,-0.04843415049971081
1772454502638892500,0.156892578125,-0.09180442347228526,-0.15626067516133188,-0.021565788989514112
1772454502648910800,0.166910888671875,-0.1540472368955612,-0.17164456064552067,-0.03154016184667125
1772454502658928600,0.1769287109375,-0.17738953403830526,-0.18933833050727844,-0.030175166236935183
1772454502668946700,0.18694677734375,-0.09490765018463135,-0.15464951363764703,-0.021481677202903664
1772454502678964700,0.19696484375,-0.0450169533342123,-0.13733831335268915,-0.0205672429388389
1772454502688982300,0.206982177734375,-0.023280922344326972,-0.1064797222957015,0.04240387105925474
1772454502699000300,0.217000244140625,-0.000702010789513588,-0.05481127518303692,0.05873806583848781
1772454502709018000,0.22701806640625,0.048157004925608635,-0.027193273482471702,0.04695343782212585
1772454502719036400,0.237036376953125,0.14357026654481886,-0.0404094595387578,0.027066295235091818
1772454502729054200,0.24705419921875,0.1891132895797491,-0.03549830662161112,0.01661100242661778
1772454502739071500,0.257071533203125,0.14998539428412913,-0.006092910047620534,-0.0168838143188972
1772454502749089300,0.26708935546875,0.05689736074209213,-0.005503200526162982,-0.01048789817013312
1772454502759107300,0.277107421875,0.03982932156324386,-0.0006863017637282609,-0.062380440928833554
1772454502769125000,0.287125,0.02398468669950962,0.03833250713422894,-0.07995954403551295
1772454502779142400,0.297142333984375,-0.03329378231465816,0.055026525368914,-0.028156958282319827
1772454502789160200,0.30716015625,-0.09237959301173686,0.0325926483079791,0.036182277147646526
1772454502799178200,0.31717822265625,-0.11929098081290722,0.0013520721960812807,0.07253296053160448
1772454502809196300,0.3271962890625,-0.18078619073927402,-0.028273542999848723,0.1131420753948856
1772454502819214300,0.33721435546875,-0.1603524745196104,-0.043661958528682585,0.06983481662196572
1772454502829231400,0.3472314453125,-0.13765022884607314,-0.050161768876761194,0.021609705763054078
1772454502839249400,0.35724951171875,-0.0473567944586277,-0.044648120021820066,-0.024364543729415163
1772454502849267200,0.36726708984375,0.05702887816727161,0.0010387684632092713,-0.026607390752760692
1772454502859285200,0.37728515625,0.13761165040135384,0.03660056877508759,-0.01192412781859748
1772454502869303300,0.38730322265625,0.13030454225838184,0.024278116688132286,0.01049022712453734
1772454502879320300,0.3973203125,0.10830781450569629,-0.010517594622075558,0.06601730416042265
1772454502889338400,0.40733837890625,0.08667758197784424,-0.054439373130723834,0.05938642391173634
1772454502899356400,0.4173564453125,0.013660861083865165,-0.07117715744189917,0.023812855530250816
1772454502909374200,0.427374267578125,-0.053632221466302865,-0.08498553723767399,0.016307352438080125
1772454502919392300,0.437392333984375,-0.05157821154594421,-0.09669657942801714,-0.021590156245790422
1772454502929409300,0.4474091796875,0.006571779605746269,-0.08294745553880929,0.008513205130258574
1772454502939427300,0.45742724609375,0.08556991299688815,-0.050733431284874675,0.02429641496322583
1772454502949445000,0.467445068359375,0.10472060366868972,-0.04105199522599578,0.035331900546140965
1772454502959463400,0.47746337890625,0.11622165637016296,-0.03292896759025753,0.05428241073703393
1772454502969480200,0.487480224609375,0.14010229817330835,-0.024287030646950005,0.04929562616725452
1772454502979498500,0.49749853515625,0.16809563599228858,-0.02646663970835507,0.010658163003390654
1772454502989516300,0.507516357421875,0.18115853118300437,-0.036628187434375285,-0.05741666277530603
1772454502999534300,0.517534423828125,0.11897884612381457,-0.024408099743351338,-0.0719053438522853
1772454503009552100,0.52755224609375,0.06761398506760596,-0.026404826518520712,-0.04856750368895009
1772454503019569400,0.5375693359375,0.0005143792629241943,-0.022801395199075338,-0.06363070585140958
1772454503029587200,0.547587158203125,-0.06223696820437908,-0.032691797833517194,-0.07855271857804619
1772454503039605500,0.55760546875,-0.09425766184329987,-0.05048011411093175,-0.04057771051144227
1772454503049623300,0.567623291015625,-0.04525368469953537,-0.07175744154788553,-0.027118765207845716
1772454503059641300,0.577641357421875,0.028209610918164253,-0.08691051395088434,-0.017623389772977678
1772454503069658400,0.587658447265625,0.08570493755340576,-0.0398970530372113,0.02221981418514624
1772454503079676400,0.597676513671875,0.14441606971919535,0.004390124717727303,0.08783637835783883
1772454503089694200,0.607694091796875,0.14611118319928645,0.04756985268741846,0.10583335068356245
1772454503099712300,0.617712158203125,0.12454700164496899,0.07303615624681115,0.08647769375788047
1772454503109729300,0.627729248046875,0.09984919824004172,0.0820199654303491,0.12198219265826046
1772454503119747300,0.637747314453125,0.04130582385659218,0.025277722184732555,0.10491463753660209
1772454503129765400,0.647765380859375,0.025762217766046522,0.023564196265116334,0.03947942128018476
1772454503139783400,0.657783447265625,0.026075521498918532,0.05558554749116301,-0.000044944253424182534
1772454503149801200,0.66780126953125,0.007163315758109092,0.10168700812645257,-0.006254128491319715
1772454503159818500,0.677818603515625,-0.050719548889994616,0.10408113672137259,-0.06579244132940656
1772454503169836300,0.687836181640625,-0.046401101168990135,0.04614968369118869,-0.09470301272431388
1772454503179854300,0.697854248046875,-0.003099135059118271,0.0006247077696025371,-0.04775141066624783
1772454503189872400,0.707872314453125,0.047338089758157724,-0.03977254987470805,0.04263987633879296
1772454503199890400,0.717890380859375,0.07023439669907093,-0.025589345417171717,0.09033279828345403
1772454503209907200,0.7279072265625,0.05778174236118793,-0.035021482890099286,0.07208624424398877
1772454503219925500,0.737925537109375,-0.00848667331635952,-0.061552200810611246,0.04235043753869831
1772454503229943300,0.747943359375,-0.04273088822364807,-0.07231807110533117,0.03857376854419708
1772454503239961300,0.75796142578125,-0.01419569861292839,-0.05772241338938474,0.04893960667066276
1772454503249979100,0.767979248046875,0.08183481812179089,0.016467223741486667,0.03655585285052657
1772454503259996400,0.777996337890625,0.2040454857736826,0.050230011807382104,-0.015618497957661747
1772454503270014200,0.78801416015625,0.19426526551544665,0.027705022396892307,-0.06458364092838019
1772454503280032500,0.798032470703125,0.11092822613716125,-0.010782017711922526,-0.043221795279439534
1772454503290050300,0.80805029296875,0.023968320086598396,-0.08253741343319415,-0.04252816872578114
1772454503300068400,0.818068359375,0.03489946394562721,-0.1295893797263503,-0.055741121645364905
1772454503310085400,0.82808544921875,0.08409574879109859,-0.13120828616507352,-0.06596302125649527
1772454503320103400,0.838103515625,0.1220931787520647,-0.10070486522130667,-0.004731923892721534
1772454503330121200,0.848121337890625,0.090495678961277,-0.05430946314074099,-0.0029863588670268654
1772454503340139300,0.85813916015625,-0.002802197939157486,-0.013177315350621938,0.0398933449764736
1772454503350156300,0.86815625,-0.0911497589558363,-0.02108998817130923,0.02048610399402678
1772454503360174300,0.87817431640625,-0.12295067236423492,-0.05492036158069968,-0.04039555887756869
1772454503370192400,0.8881923828125,-0.09833528654575348,-0.10158683568760753,-0.014790961092337965
1772454503380210400,0.89821044921875,-0.041538463568687435,-0.11651420957595109,0.024795181098487228
1772454503390228200,0.908228271484375,-0.033632220488786696,-0.09243819133117795,0.03941305064624175
1772454503400245200,0.918245361328125,-0.01686696364879608,-0.09907434141002595,-0.011070351400319487
1772454503410263300,0.92826318359375,-0.03955576531887054,-0.10729746841937303,-0.051776784591656175
1772454503420281300,0.93828125,0.008628127613663673,-0.08629004396498202,-0.05319699012050405
1772454503430299400,0.94829931640625,0.06586743366122245,-0.05071173090972006,-0.02036987546952441
1772454503440317400,0.9583173828125,0.14175064990222452,-0.005584595199301838,0.007548314754012971
1772454503450334200,0.968334228515625,0.16475860052406788,0.012148118433356284,0.03327533334251493
1772454503460352500,0.9783525390625,0.15034721333384513,0.00446085186637938,0.044393542472552505
1772454503470370300,0.988370361328125,0.2598614810198545,-0.11372063333466649,-0.015479573544161393
1772454503480388400,0.998388427734375,0.20823592320084572,-0.19722002366781233,0.05619324019388296
1772454503490406400,1.008406494140625,-0.05349252073466777,-0.08455445234403014,0.04441351668150164
1772454503500423200,1.018423095703125,-0.1523831030756235,0.0355758288372308,0.0001274075056426227
1772454503510441200,1.028441162109375,-0.16533026293218134,0.15057627284936606,0.03791402599383145
1772454503520459500,1.03845947265625,-0.16666005023121833,0.12918145651258528,-0.004859367930982262
1772454503530477300,1.048477294921875,-0.11694061829447745,-0.021664061732217667,-0.12423302205866202
1772454503540494000,1.058494140625,-0.08295476206243038,-0.2803255193125456,-0.09635920069981366
1772454503550512400,1.068512451171875,0.11779460477530955,-0.5239973514232784,-0.06686906671812758
1772454503560530400,1.078530517578125,0.24241642522215842,-0.20807963666059076,-0.14963026983668096
1772454503570548200,1.08854833984375,0.2601718621432781,0.15255670607686042,0.004673179442808032
1772454503580566500,1.09856640625,0.2779495108962059,0.2512422673650086,0.13787096805782056
1772454503590583300,1.108583251953125,0.23902386017441749,0.18273652108944952,0.2762915145561099
1772454503600601000,1.11860107421875,0.14495207629203796,0.023204934498667715,0.20835900159124285
1772454503610619400,1.128619384765625,0.048345220974087715,-0.10704992339909077,0.08334953353367745
1772454503620637400,1.138637451171875,-0.08663958805501461,-0.13026676753126085,0.01995012482064776
1772454503630655200,1.1486552734375,-0.11540741737782954,-0.13037212760187686,-0.06546276185046881
1772454503640672300,1.15867236328125,-0.0695475834786892,-0.0790758748024702,-0.08805848754276521
1772454503650690300,1.168690185546875,-0.0005938742399215698,-0.04463233793079853,-0.08078732749600895
1772454503660708000,1.1787080078125,0.06227028595209121,-0.0032747108217328785,-0.07268212777790613
1772454503670726400,1.188726318359375,0.20489713416695593,0.01331774673461914,-0.10316811352968215
1772454503680744400,1.198744384765625,0.26759879727363584,0.034852482998743654,-0.06091567473905161
1772454503690761200,1.20876123046875,0.24140286426544189,0.07925356945693493,0.003612537074508145
1772454503700779300,1.218779296875,0.15271101985573768,0.11292049593292176,0.06935375967333093
1772454503710797300,1.22879736328125,0.11518588358163832,0.1266326488126069,0.08142080309395677
1772454503720815400,1.2388154296875,0.11091361308991908,0.06349960855133831,0.05571382264648564
1772454503730832400,1.248832275390625,0.13403613000214099,0.0015685644909739494,0.03948891062773764
1772454503740850200,1.25885009765625,0.06439560754299163,-0.047943362174928186,0.09015187049228697
1772454503750868200,1.2688681640625,-0.06630348699092864,-0.09490903842411935,0.13356116943415253
1772454503760886300,1.27888623046875,-0.12341186013519763,-0.06164324009492993,0.1429990607944317
1772454503770904300,1.288904296875,-0.15804828923046588,-0.007568900884315371,-0.0028209574385546147
1772454503780921300,1.29892138671875,-0.16071604713499546,-0.006563596299290657,-0.10968312144689261
1772454503790939400,1.308939453125,-0.12565583966970442,0.031547230908274645,-0.1584305300137028
1772454503800957200,1.318957275390625,-0.09205284527540207,0.022285189305245874,-0.0771052323166281
1772454503810975200,1.328975341796875,0.0015559972703456878,-0.004281257515773177,-0.02874569055624306
1772454503820993500,1.33899365234375,0.06784136408269405,-0.04194784808717668,0.04716779295885935
1772454503831010300,1.34901025390625,0.12630348992347717,-0.08654131531231105,0.07391536850044503
1772454503841028000,1.359028076171875,0.15057459234893322,-0.08561148711629211,0.09199357110252604
1772454503851046400,1.36904638671875,0.12522270894944668,-0.07881240156069398,0.09888296529008075
1772454503861064200,1.379064208984375,0.10982640237510204,-0.08099252207875252,0.08796659887507557
1772454503871081500,1.38908154296875,0.08530570910274982,-0.11769260570555924,0.09485164568107575
1772454503881099300,1.399099365234375,0.07184709259271621,-0.1421257668249309,0.10500623394334688
1772454503891117300,1.409117431640625,0.0886877527564764,-0.16684592819213867,0.09136186733655631
1772454503901135000,1.419135009765625,0.08706102833747863,-0.16190956776849924,0.06886646934673189
1772454503911153400,1.4291533203125,0.03572948502898216,-0.11038184430077672,0.07018803680669516
1772454503921170200,1.439170166015625,-0.024442951861023902,-0.11459938893057406,0.05189387163268402
1772454503931188200,1.449188232421875,-0.0048655602097511285,-0.10749540214426814,0.03887642301889136
1772454503941206300,1.459206298828125,0.009950316128134728,-0.1112351001292467,0.0379163275487721
1772454503951224300,1.469224365234375,0.06742284640967845,-0.13090141217298806,0.010801745325699448
1772454503961242000,1.4792421875,0.12648702979683876,-0.11389810879342258,0.030287476638145742
1772454503971259400,1.48925927734375,0.11224281586706637,-0.10883256903216242,0.04248643020959571
1772454503981277200,1.499277099609375,0.050391632109880444,-0.11921543135866522,0.027779822932463137
1772454503991295200,1.509295166015625,-0.06952420260310173,-0.09749299050271511,0.027821232655085622
1772454504001313300,1.519313232421875,-0.14459201080799103,-0.11891023786701262,0.025827574619837104
1772454504011330300,1.529330322265625,-0.17946458674669263,-0.12205153156742453,0.0033686361828818914
1772454504021348400,1.539348388671875,-0.138174544981122,-0.11017711550891399,-0.04590157241532579
1772454504031366400,1.549366455078125,-0.04044949928820133,-0.09175159730650484,-0.04990015879850834
1772454504041384200,1.55938427734375,0.03356909212470054,-0.07762823327742517,-0.01493033303041011
1772454504051402200,1.56940234375,0.060815410968661304,-0.05309687248058617,0.04403333085803315
1772454504061419300,1.579419189453125,0.09010112668573855,-0.038748759784922,0.020921298807207493
1772454504071437300,1.589437255859375,0.09033668900728226,-0.016000190751627088,-0.000026796675380319354
1772454504081455000,1.599455078125,0.03434533719420433,0.03782463067732751,0.015307733241748063
1772454504091473400,1.609473388671875,-0.01454465818107128,0.04086078350283205,0.0536546890264377
1772454504101491200,1.6194912109375,-0.033467969837784765,0.027653146079182622,0.06482820854028687
1772454504111508500,1.629508544921875,0.014607786545157432,-0.0025508535265922547,0.025955877174623308
1772454504121526300,1.6395263671875,0.06048749418854713,-0.013430413328856229,0.019345939249265937
1772454504131544300,1.64954443359375,0.07766542348265647,0.013508812327310443,0.013017503412719815
1772454504141562000,1.65956201171875,0.041593408626317975,0.006151581432297826,0.013196622839290647
1772454504151580400,1.669580322265625,0.010194646278023719,-0.026440555419027803,-0.00555456538721919
1772454504161597200,1.67959716796875,0.026016484788060186,-0.02086692000515759,-0.014798267615959048
1772454504171615500,1.689615478515625,0.03755728497803211,0.002568023857101798,-0.007231485623493791
1772454504181633300,1.69963330078125,0.058390814170241355,0.021248028277233242,0.00411284214630723
1772454504191651300,1.7096513671875,0.0511082559466362,0.044445437056571245,-0.03381313001364469
1772454504201668400,1.71966845703125,0.06334463718533516,0.028162629971280693,-0.03982440792610869
1772454504211686400,1.729686279296875,0.06585340513586997,-0.008456205112859607,-0.028932865425106136
1772454504221704200,1.7397041015625,0.08350479716062545,-0.021466566398739815,0.0057662353765219445
1772454504231722200,1.74972216796875,0.084352353900671,-0.002236819141358137,-0.03619536724137142
1772454504241740300,1.759740234375,0.007696984243392944,0.060057286077737804,-0.03964306000983342
1772454504251757300,1.76975732421875,0.03908873232901096,0.07419533621929586,-0.12669954003635794
1772454504261775400,1.779775390625,0.0485462965041399,0.0003634995501488447,-0.21656914125485344
1772454504271793400,1.78979345703125,-0.016031097346544263,-0.022792188979312775,-0.14278249543430283
1772454504281811200,1.799811279296875,-0.03653437167108059,-0.051410746024549,-0.0724150834727101
1772454504291829200,1.809829345703125,-0.07243512161374091,-0.061874272371828555,-0.010432199627254158
1772454504301846300,1.81984619140625,-0.1372773038804531,-0.04225662177540362,0.01704895088588819
1772454504311864300,1.8298642578125,-0.17841712352037428,-0.0073326079104095694,0.027134364635776727
1772454504321882400,1.83988232421875,-0.1911784054160118,0.15492789218761027,-0.04915606243293732
1772454504331900400,1.849900390625,0.042673605078458784,0.18403277144506572,-0.2007323791703209
1772454504341917200,1.859917236328125,0.09398761273026465,0.11274265514798462,-0.1260510221329052
1772454504351935500,1.869935546875,0.1156014786452055,-0.048665173643454906,-0.002251002930337563
1772454504361953300,1.879953369140625,0.08500409580767154,-0.20757541346549988,0.09763649975978769
1772454504371971300,1.889971435546875,0.0642138212352991,-0.3016520196534693,0.17950225187595933
1772454504381989000,1.899989013671875,0.013645078992843626,-0.2731704599261284,0.1634753192478791
1772454504392006400,1.91000634765625,-0.11418752019405365,-0.20855236873887478,0.14175308845448306
1772454504402024200,1.920024169921875,-0.25297172150611874,-0.19794358870200812,-0.005685561080946354
1772454504412042500,1.93004248046875,-0.2947241200864315,-0.24216500774435698,-0.24023438674164935
1772454504422060300,1.940060302734375,-0.23742519280612467,-0.27864100029170513,-0.03541568810576573
1772454504432078300,1.950078369140625,-0.09983400067090988,-0.23738391094766556,0.17929871039418502
1772454504442095400,1.960095458984375,0.06521101557910441,-0.15227854672260582,0.31908648099191483
1772454504452113400,1.970113525390625,0.2880027028769255,0.014580533212050795,0.47948980891592796
1772454504462131200,1.980131103515625,0.6461427718192339,0.2642722101341933,0.6066573683228343
1772454504472149200,1.990149169921875,1.0750351238548754,0.5251607691794633,0.5429659269938245
1772454504482166300,2.000166259765625,1.350112878707051,0.5813313500169665,0.271872090678662
1772454504492184300,2.010184326171875,1.0603881743431092,0.4803581161830574,0.3886450973212719
1772454504502202400,2.020202392578125,-1.1687690540850162,-0.046472339774295685,-0.6062286580493673
1772454504512220400,2.030220458984375,-1.6120008971184492,-0.005081979439407587,-0.8922439499687403
1772454504522238200,2.04023828125,-1.1138555606365204,0.01736497629880905,-0.5835557115355506
1772454504532255500,2.05025537109375,-0.7051742219805717,-0.1902029114473611,-0.3120714511306956
1772454504542273300,2.060273193359375,-0.3004828297436237,-0.3373495751742273,-0.21894239145852623
1772454504552291300,2.070291259765625,0.0854682061880827,-0.3288681260222569,-0.32072003701049834
1772454504562309400,2.080309326171875,0.2497936759918928,-0.34452724825125186,-0.5883833143550903
1772454504572326400,2.090326416015625,0.29576982974708077,-0.46214730017725375,-0.8069493467818946
1772454504582344200,2.10034423828125,0.26083763257563114,-0.4398660563947633,-0.7943998810060322
1772454504592362500,2.110362548828125,0.2031114197939634,-0.32864195258356627,-0.6094656306765973
1772454504602380300,2.12038037109375,0.24759412012100218,-0.22303141433782875,-0.3401665322910994
1772454504612398300,2.1303984375,0.3777081082433462,-0.12520057018287478,-0.017837160387821495
1772454504622415400,2.140415283203125,0.5624573573946953,0.042670207544974983,0.3190059631016105
1772454504632433400,2.150433349609375,0.805576377928257,0.1877273881793022,0.5671391950679943
1772454504642451200,2.160451171875,0.939841640511155,0.264476244806312,0.7091452445033938
1772454504652469500,2.170469482421875,0.7447884394884109,0.22632541438192127,0.7459041456453501
1772454504662487300,2.1804873046875,0.3040390609204769,0.16389047592002898,0.5611106920260935
1772454504672504000,2.190504150390625,-0.1489157192260027,0.13032273550219833,0.3117061614822596
1772454504682522400,2.2005224609375,-0.4582464568138122,0.14434523297268897,0.26410324677545577
1772454504692539400,2.210539306640625,-0.22442834858894348,0.3073074515992775,0.34512875780835744
1772454504702557400,2.220557373046875,-0.24993922194242477,0.23635518895443527,0.4999653184507042
1772454504712574500,2.230574462890625,-0.8805757970720529,-0.0769729477064684,0.2216599433215335
1772454504722592500,2.240592529296875,-0.7155208439499139,-0.28279326113294806,-0.23477491575935855
1772454504732610600,2.250610595703125,-0.5433990211814642,-0.30627460142020135,-0.30475946588320657
1772454504742628600,2.260628662109375,-0.20130700072050092,-0.2594152898886241,-0.19131646217983214
1772454504752646400,2.270646484375,0.2711164500057697,-0.02514651528680697,0.0008962181873619555
1772454504762663700,2.28066357421875,0.6073743574857712,0.4027909654431045,0.33757384891677644
1772454504772681500,2.290681396484375,0.9003349750310182,0.9121372757013887,0.7087819641489536
1772454504782699500,2.300699462890625,1.1357318768799305,0.8993372692305595,1.0133034748241305
1772454504792717600,2.310717529296875,1.1595464677095413,0.6409480527203529,1.1987194442559033
1772454504802734600,2.320734619140625,0.9391045584082602,0.4083081579620018,1.2237138925198465
1772454504812752400,2.33075244140625,0.5790104327887297,0.15034728639908135,0.9551187776852399
1772454504822770700,2.340770751953125,0.13929624248743055,-0.106655261525698,0.5095221782818437
1772454504832788500,2.35078857421875,-0.16465338658392428,-0.36876145273242145,-0.015947127123828977
1772454504842806500,2.360806640625,-0.43964112506508823,-0.5476098438095302,-0.47726442448403683
1772454504852823600,2.370823486328125,-0.9135720577448606,-0.7531503173813223,-0.7906231389462948
1772454504862841600,2.380841552734375,-1.2233891175448894,-0.8247925350517034,-0.9153031923864037
1772454504872859400,2.390859375,-1.1820511449843645,-0.6801673526264727,-0.8953544101394713
1772454504882877700,2.400877685546875,-0.9180302061975002,-0.3619400092145428,-0.8662527457524091
1772454504892895500,2.4108955078125,-0.6336182212889194,-0.08247074140515177,-0.7703953205622732
1772454504902912500,2.42091259765625,-0.372822089767456,0.07820897404113784,-0.5751446607386693
1772454504912930600,2.4309306640625,-0.07408230429887772,0.10832679320080205,-0.2746841889573261
1772454504922948600,2.440948486328125,0.20670798298120496,0.11530154585056006,-0.0011180625108070672
1772454504932966400,2.45096630859375,0.4306558545768261,0.13176412994954734,0.17480981974340976
1772454504942983700,2.460983642578125,0.6069499945938587,0.1680876353489235,0.204394628004916
1772454504953001500,2.47100146484375,0.780975020635128,0.18015300740227103,0.1713232928019017
1772454504963019500,2.48101953125,0.8031511966079473,0.19952618171833456,0.12636644475762732
1772454504973037600,2.49103759765625,0.7169575987547636,0.15719675043504686,0.12189550075549632
1772454504983055600,2.5010556640625,0.6219985106438398,0.1063696495173499,0.1324610992377624
1772454504993072400,2.511072265625,0.5430126522123814,0.03816774502657354,0.05313437321307137
1772454505003090700,2.521090576171875,0.4120382478684187,-0.012992021911591291,-0.015995331913419068
1772454505013108500,2.5311083984375,0.14130465970039366,-0.046770263274945316,-0.13594912401661277
1772454505023126500,2.54112646484375,-0.06477963842451571,-0.05782368180677294,-0.21511021115081383
1772454505033143600,2.5511435546875,-0.19879647920429705,-0.0017381489042192697,-0.20767039827257394
1772454505043161600,2.56116162109375,-0.2048030261427164,0.0831965714616701,-0.14909158724956215
1772454505053179400,2.571179443359375,-0.16788696167767048,0.1595247549911961,-0.08865808827057481
1772454505063197700,2.58119775390625,-0.1552624579042196,0.16952124834861607,-0.002437017888575792
1772454505073215500,2.591215576171875,-0.17362930472195148,0.11479334060009569,0.11032231439957395
1772454505083232800,2.601232666015625,-0.165066059038043,0.02494933048058301,0.11193946727262809
1772454505093250600,2.61125048828125,-0.07638239793479443,-0.026380203533917665,-0.0054230296957306565
1772454505103268600,2.6212685546875,0.033793548530340195,-0.012842932297103106,-0.09952295282720587
1772454505113286400,2.631286376953125,0.22132395283281803,-0.03531410916112363,-0.09636563957375474
1772454505123304700,2.6413046875,0.32783845418095586,-0.08501425187550485,-0.030606881318241356
1772454505133321500,2.651321533203125,0.29828152030706406,-0.11743285879082978,0.031039208320900798
1772454505143339500,2.661339599609375,0.1934749919205904,-0.12105148767940699,0.08958500299029983
1772454505153357600,2.671357666015625,0.0938069954663515,-0.09987345589846372,0.08463551822360604
1772454505163375600,2.681375732421875,0.046879824596643443,-0.03312883754391223,-0.007131687643984332
1772454505173392600,2.691392578125,0.0290396320015192,0.010563808383978903,-0.05979251592801883
1772454505183410700,2.70141064453125,0.010662263789772987,-0.016786738019436597,-0.01152302707126364
1772454505193428500,2.711428466796875,-0.08296411441266537,-0.06816898860186338,0.06554559956202283
1772454505203446500,2.721446533203125,-0.16312719992995262,-0.14731774597745387,0.047474922679271545
1772454505213464600,2.731464599609375,-0.15195990922749042,-0.1733418660826981,-0.05051840029470622
1772454505223481600,2.741481689453125,-0.139426006346941,-0.1802272051496431,-0.16869889911506325
1772454505233499600,2.751499755859375,-0.08626023334860801,-0.17617339971419424,-0.21546760975373908
1772454505243517700,2.761517578125,0.007160977670550346,-0.17169486606065182,-0.23455171972904354
1772454505253535500,2.771535400390625,0.07099602872133255,-0.1775043560570106,-0.1664367811356671
1772454505263553500,2.781553466796875,0.14766951855719088,-0.12053615856841206,-0.04614515364654362
1772454505273570600,2.791570556640625,0.2380558919250965,-0.05645370862782001,-0.004389814190473408
1772454505283588600,2.801588623046875,0.20254910973608492,0.0077319824915379285,0.06309479061011225
1772454505293606400,2.8116064453125,0.03588496785163879,0.019333353762328625,0.08980287439152598
1772454505303624700,2.821624755859375,-0.24414777905941007,-0.010536080126836895,0.13444257364487275
1772454505313641500,2.831641357421875,-0.43326691385805605,-0.018457301580160856,0.13065704549048096
1772454505323659800,2.84165966796875,-0.5095172098457813,0.0005928513266146183,0.0949131483436562
1772454505333677600,2.851677490234375,-0.49649932284057136,0.052162002783268685,0.02339439265616238
1772454505343695600,2.861695556640625,-0.42449440933763977,0.11263619909882545,0.005903250960726291
1772454505353713400,2.87171337890625,-0.2579793205350637,0.11029361802805214,-0.005327606497239321
1772454505363730700,2.881730712890625,-0.08078034063279628,0.03452208200059831,0.009639350482821465
1772454505373748500,2.89174853515625,0.09902560689747333,0.0006772782070562243,0.013190467093139886
1772454505383766500,2.9017666015625,0.23199147731959818,-0.05894114152938127,0.00015824103532359002
1772454505393784600,2.91178466796875,0.3282768455982208,-0.07865834351014346,-0.051710751884430646
1772454505403801300,2.92180126953125,0.357219446966052,-0.1075847974607721,-0.07907105249688029
1772454505413819600,2.931819580078125,0.36716216430962084,-0.10323701404742897,-0.09579211400211789
1772454505423837700,2.941837646484375,0.3325391792178154,-0.0951078854644671,-0.11326504418742843
1772454505433855500,2.95185546875,0.2852911058306694,-0.0784574871757999,-0.08961505106869153
1772454505443873500,2.96187353515625,0.16761282091140747,-0.061630599809065455,-0.020859540416300296
1772454505453890600,2.971890625,0.06583177782595158,-0.03727455904651433,0.027227029621601104
1772454505463908600,2.98190869140625,-0.04805529811680317,0.05969195989668369,0.07093819758687168
1772454505473926700,2.9919267578125,-0.10839783087670803,0.10473507058545946,0.08570247160168364
1772454505483944700,3.00194482421875,-0.1130260751992464,0.11460260380096733,0.06696529363421723
1772454505493961500,3.01196142578125,-0.09491934062242507,0.06325096755251287,0.0016547084044665097
1772454505503979500,3.0219794921875,-0.02537058809995651,-0.015545323123596608,-0.06028165115183219
1772454505513997600,3.03199755859375,0.04516308380663395,-0.08587970959842205,-0.11358969129822216
1772454505524015600,3.042015625,0.09516367077231407,-0.10191446020677686,-0.0991162260566838
1772454505534033700,3.05203369140625,0.11607435685396193,-0.0780051768310368,-0.06554327974077313
1772454505544050400,3.062050537109375,0.1067646767169237,-0.025948607183620333,-0.05969273621481843
1772454505554068500,3.072068359375,0.10528700537979602,0.014738755981065332,-0.011523264533281325
1772454505564086500,3.08208642578125,0.017010171511769295,0.028890505854412912,0.012431812479253858
1772454505574104600,3.0921044921875,-0.08223580013811588,0.0041611017348244786,0.021157920574676244
1772454505584121300,3.102121337890625,-0.11483107879459857,0.0014681728564202785,0.026523868054617195
1772454505594139600,3.1121396484375,-0.1255219841569662,-0.011637976954132318,0.005172141940891742
1772454505604157400,3.122157470703125,-0.12690788555741309,0.011307977814786135,-0.019337408882938324
1772454505614175500,3.132175537109375,-0.13734510841965675,0.01848791591413319,-0.03532172621199861
1772454505624193800,3.14219384765625,-0.12158172209858893,0.005106931217573583,-0.0671037705231458
1772454505634210600,3.15221044921875,-0.11390870325267315,-0.005514890963956714,-0.04284434026917443
1772454505644228400,3.162228271484375,-0.07950608291327953,-0.012221293267421423,0.040492160252993924
1772454505654246700,3.17224658203125,-0.03680325174033642,-0.00667129445746541,0.06366357607454992
1772454505664264400,3.182264404296875,0.07509937238693237,0.005684219648875295,0.06040438248235732
1772454505674282500,3.192282470703125,0.17104221083819865,-0.005764153017289936,0.03837748792027123
1772454505684299500,3.202299560546875,0.2410100655555725,-0.028436843802779912,0.017743043230427427
1772454505694318000,3.212318115234375,0.2785726112306118,-0.06069006755594164,0.025700906899711117
1772454505704336000,3.2223359375,0.32757015863358974,-0.052257718242704865,0.045791992827318606
1772454505714354000,3.23235400390625,0.331549583658576,-0.05727076063174754,0.0384623531921301
1772454505724371000,3.242370849609375,0.3262310189843178,-0.06487564614489674,-0.020615356396883725
1772454505734389000,3.252388916015625,0.32403555476665497,-0.03219078950881958,-0.026381902300659565
1772454505744407000,3.262406982421875,0.22146189999878405,0.007583221670612692,-0.022953791015502063
1772454505754425000,3.272425048828125,0.0443850851714611,0.03229132727384567,0.022165042657451704
1772454505764443000,3.28244287109375,-0.12187398304343224,0.05255410737339407,0.05649204961052164
1772454505774460200,3.292460205078125,-0.22571078961491584,0.07203318974934518,0.10433293779166415
1772454505784478000,3.30247802734375,-0.27474866902828216,0.09521554709002375,0.10350401268685236
1772454505794496000,3.31249609375,-0.26186989823281764,0.09510430526789278,0.07610272247688844
1772454505804514000,3.32251416015625,-0.14111469008624553,0.08787654597144573,0.06800882960408926
1772454505814531000,3.332531005859375,-0.011968085691332817,0.06094922994878143,0.018748347815452142
1772454505824548900,3.342548828125,0.08638532103300094,0.01661960129160434,-0.018161003781016916
1772454505834567200,3.352567138671875,0.1267676003038883,-0.0343073432713747,-0.018111465550865978
1772454505844585000,3.3625849609375,0.14807166961729526,-0.007147387536615133,0.032344957157224415
1772454505854603000,3.37260302734375,0.14735621482431888,0.01299147392231971,0.018783784455014392
1772454505864620000,3.3826201171875,0.10927402918934821,0.02312591444570571,0.03710652726953849
1772454505874638000,3.39263818359375,0.05648585733175277,0.05875931868907064,0.10105603501284495
1772454505884655900,3.40265576171875,0.018390812215209006,0.053263168958202003,0.10393487838478759
1772454505894674200,3.412674072265625,-0.0022428104907274244,0.06440737104602158,0.08892686787513084
1772454505904691000,3.42269091796875,-0.03096680067181587,0.015306947790458797,0.059890624273940915
1772454505914709000,3.432708984375,-0.031159108373522756,-0.0563989827658981,-0.004948297456605359
1772454505924727000,3.44272705078125,0.0073036010116338725,-0.10339757490400224,-0.06294261398939416
1772454505934745000,3.4527451171875,0.0490823030769825,-0.10558580566328019,-0.0933578725925181
1772454505944763000,3.462762939453125,0.07557809581458567,-0.07584909477569163,-0.06914810843286104
1772454505954780000,3.47277978515625,0.09722995565235615,-0.017447759211435914,0.01520409020418301
1772454505964798000,3.4827978515625,0.06465630430579185,0.0676628291780129,0.021429558856599033
1772454505974816000,3.49281591796875,0.05433540129959583,0.07556735522486269,0.006855345787480473
1772454505984834000,3.502833984375,0.005879705688357353,0.05853588519673794,0.04234021753878332
1772454505994850800,3.512850830078125,-0.00646364305615425,0.002255523841828108,0.052669029856799165
1772454506004868900,3.522868896484375,0.009373393023014069,-0.025587847579829393,0.07609028312042355
1772454506014887000,3.532886962890625,0.05917933419942856,-0.060205060517974196,0.045203717211121694
1772454506024905000,3.542905029296875,0.04986906954050064,-0.05788198786526918,0.04159234004723839
1772454506034923000,3.552923095703125,0.05774257939457893,-0.00491539070084691,0.035564942117035384
1772454506044940000,3.56293994140625,0.04720364972352981,0.011578538384474812,0.011267855866951866
1772454506054957800,3.572957763671875,-0.011198270362615585,0.02027406867854297,0.003681355393864214
1772454506064976000,3.582975830078125,-0.031251462832093235,-0.006222272048331797,0.006471113976556807
1772454506074994200,3.592994140625,-0.03884089504778385,-0.012179353821836412,-0.004897471451666206
1772454506085012000,3.603011962890625,-0.04520516938269138,-0.01920457628350705,-0.014127460248884744
1772454506095029000,3.613029052734375,-0.02164192296564579,-0.050621020418964324,-0.03559427324279677
1772454506105047000,3.623047119140625,-0.0021411036819219587,-0.056715391771309076,-0.03953030208405107
1772454506115064800,3.63306494140625,0.08047054403126239,-0.05154624550510198,-0.03980162983871996
1772454506125083000,3.643082763671875,0.1450724878013134,-0.007571786961145698,-0.05470959577369503
1772454506135100000,3.653099853515625,0.17715104910731314,0.04580298914536834,-0.02777641626582481
1772454506145118000,3.663117919921875,0.236710322535038,0.05153210738189518,0.0140685103029944
1772454506155135700,3.6731357421875,0.24489304446876048,0.03271495951339602,0.0683296179570956
1772454506165154000,3.683154052734375,0.2164975555896759,-0.023795082411542535,0.053451416972721925
1772454506175170800,3.6931708984375,0.14551906252503394,-0.10667981144506483,-0.01465255270206835
1772454506185189000,3.703189208984375,0.11186053855121135,-0.13219064826592802,-0.0971176543843001
1772454506195207000,3.71320703125,0.013214286360144614,-0.0841552238933742,-0.13641484183222055
1772454506205225000,3.723224853515625,-0.09480652789771556,-0.03763937377091497,-0.1342049837630242
1772454506215242800,3.73324267578125,-0.15089958651959895,0.023506438195891675,-0.12150743301967158
1772454506225260000,3.743260009765625,-0.207813898396492,0.07004800728149711,-0.08142004504213109
1772454506235277800,3.75327783203125,-0.2394844634234905,0.0852913883164525,-0.04370895317529794
1772454506245296000,3.763296142578125,-0.2342605912953615,0.07097359769381582,0.015027381930407136
1772454506255314000,3.77331396484375,-0.14283493800759314,0.027525391513668,0.02538794109355658
1772454506265332000,3.78333203125,-0.01799333733022213,-0.0064335401788353916,0.03002360838743625
1772454506275349000,3.793348876953125,0.08612287070453166,-0.0533806213254109,0.05329703012860845
1772454506285367000,3.803366943359375,0.20771102254390716,-0.05696100056283176,0.06162798316029366
1772454506295384800,3.813384765625,0.3070551938712597,-0.057266632445901626,0.05067675092788413
1772454506305403000,3.82340283203125,0.39231355670094487,-0.049740584322623904,0.04803666648156941
1772454506315420000,3.833419921875,0.3873147255003452,-0.05811897495891898,0.026794145496515556
1772454506325438000,3.84343798828125,0.32714228861033917,-0.052306452755257485,0.035656835351302284
1772454506335456000,3.8534560546875,0.21594927405714986,-0.06300956001207232,0.04102630366231315
1772454506345474000,3.86347412109375,-0.05122691389024257,-0.08234382708985358,0.028528230146970597
1772454506355491800,3.873491943359375,-0.2085620864152908,-0.0817539349053055,0.010276438243384473
1772454506365509000,3.883509033203125,-0.3189303405821323,-0.022622531500831246,0.001096188605716452
1772454506375527000,3.89352685546875,-0.38892040713131426,0.030287403572909533,-0.0511911575902719
1772454506385545000,3.903544921875,-0.30175416485369205,0.06110774497874081,-0.07585063371222932
1772454506395563000,3.91356298828125,-0.17311609450280666,0.0595374634547159,-0.07310627147410996
1772454506405580000,3.923580078125,-0.06484335131049156,0.03702504126485437,-0.07140156361518893
1772454506415597800,3.933597900390625,0.05840133556425571,-0.008054565509408713,0.006903714973852038
1772454506425616100,3.9436162109375,0.13967618171572685,-0.023233904864825308,0.0781648061058484
1772454506435634000,3.953634033203125,0.22083879966437817,-0.05842095358017832,0.10587760995039716
1772454506445652000,3.96365185546875,0.2783767963975668,-0.11524345898777245,0.0324138485418167
1772454506455669000,3.9736689453125,0.29852877306640146,-0.14253365350607783,-0.010629443798982537
1772454506465687000,3.98368701171875,0.35061025795936585,-0.17877123418767005,-0.06377646186449565
1772454506475704800,3.993704833984375,0.3924403979510069,-0.19370949479620903,-0.03980978574571199
1772454506485723100,4.00372314453125,0.38499066646695135,-0.18831114288400858,-0.021737601892463862
1772454506495740000,4.013739990234375,0.34568098486363885,-0.15252532455790788,0.032421913117263466
1772454506505758000,4.023758056640625,0.18554302987754343,-0.06349595528952777,0.051740452902950346
1772454506515776000,4.03377587890625,-0.11931611525416373,0.03439425436984747,0.04939883081340231
1772454506525794000,4.0437939453125,-0.47628830946087836,0.0664355158727616,0.034073918107990174
1772454506535811800,4.053811767578125,-0.6969307097703218,0.09818879074715077,0.0035411888713482763
1772454506545829000,4.0638291015625,-0.7327648242175578,0.15831563492976128,-0.04648145466251299
1772454506555847000,4.073846923828125,-0.631701574012637,0.19621022557076065,-0.08102836057711392
1772454506565865000,4.083864990234375,-0.43660687193572517,0.1444656444819644,-0.04846574208121746
1772454506575883000,4.093883056640625,-0.14322247602045535,0.0923542393747717,0.023381044550822114
1772454506585900000,4.103900146484375,0.1432207224547863,0.018033815471082924,0.09474303420744835
1772454506595917800,4.113917724609375,0.3876075709670782,-0.04119235354475677,0.11937979160752146
1772454506605936000,4.12393603515625,0.5662380449771881,-0.06650142071582377,0.12098795745652169
1772454506615954000,4.133953857421875,0.6416676722317933,-0.08600797562059015,0.09210311415791511
1772454506625972000,4.143971923828125,0.5922416702836751,-0.07994655668977647,0.05781466281667817
1772454506635989000,4.153989013671875,0.4771148234128952,-0.044258572714962065,0.011764544209558516
1772454506646007000,4.164007080078125,0.26636019538939,-0.02387830371558666,-0.03862885973230004
1772454506656024800,4.17402490234375,0.09121522540748118,-0.020142697383835912,-0.06157781930905767
1772454506666043100,4.184043212890625,-0.14434183543920517,0.034192082861252124,-0.03914923947774805
1772454506676060000,4.194059814453125,-0.32910686668157574,0.11083970760349184,-0.015739009931636974
1772454506686078000,4.204077880859375,-0.4028700220286846,0.1851497562436387,-0.001621043596882373
1772454506696096000,4.214095947265625,-0.3746481361508369,0.21623992756679652,0.012733334442786872
1772454506706113800,4.22411376953125,-0.2788368151247501,0.16045403519794343,0.030320721320621667
1772454506716131800,4.2341318359375,-0.12429857984185218,0.10930387633834034,0.03806448558149859
1772454506726148900,4.24414892578125,0.06397299821674823,0.05434051586613059,0.07368113505288493
1772454506736167000,4.2541669921875,0.239332487732172,-0.0025517668420448896,0.04111217358116991
1772454506746184700,4.264184814453125,0.41172260604798794,-0.0606634718099609,-0.013303836940275504
1772454506756203000,4.274203125,0.5236275682628154,-0.08603785930220037,-0.04102839058812242
1772454506766219800,4.2842197265625,0.6017004035025835,-0.08271105296704917,-0.040752025898732246
1772454506776238000,4.294238037109375,0.6112409697860479,-0.08160583167150616,-0.03942994698211551
1772454506786256000,4.304255859375,0.5872691425681114,-0.06793843124900013,0.01703148372785654
1772454506796274000,4.31427392578125,0.43211715930104255,-0.05568356450553983,0.07513521088529378
1772454506806291700,4.324291748046875,0.22641864562332628,-0.03491338287312537,0.06961645659697242
1772454506816309000,4.33430908203125,0.004609539622068405,-0.03443305201027542,0.05962388136284426
1772454506826326800,4.344326904296875,-0.19705401945114134,-0.03977627620175481,-0.004592716351430863
1772454506836344800,4.3543447265625,-0.4068552922725677,-0.005761266940459609,-0.017160749830445274
1772454506846363000,4.36436279296875,-0.6177572198122739,0.03954082347806543,-0.010671698338398709
1772454506856380000,4.3743798828125,-0.661502838036418,0.0663949646666646,0.031070169714745133
1772454506866398000,4.38439794921875,-0.6027192251563072,0.08926252043712883,0.03592510806578211
1772454506876416000,4.394416015625,-0.4585778807252645,0.11266648463923483,0.03273974689478054
1772454506886433800,4.404433837890625,-0.21255904709696768,0.09747026721425354,0.05575711379894055
1772454506896451800,4.414451904296875,0.03280278392732143,0.03126289754156023,0.09354512965977191
1772454506906468900,4.42446875,0.25612989327609537,-0.04869838179331273,0.13209312444189564
1772454506916487000,4.43448681640625,0.4471750277012586,-0.1091348399143666,0.1247497211428359
1772454506926505000,4.4445048828125,0.5562158326566219,-0.1439323413228616,0.04931936323586851
1772454506936523000,4.45452294921875,0.5544195968896151,-0.15114581636562943,-0.0020695454162079838
1772454506946539800,4.464539794921875,0.5093447758883237,-0.14384528409391642,-0.012557165025128051
1772454506956558000,4.47455810546875,0.3947720557689667,-0.08759926340002566,0.00806315980781801
1772454506966575900,4.484575927734375,0.23326573503911494,-0.004519340587966144,0.009164170719124376
1772454506976594000,4.494593994140625,0.03547404896318912,0.0266876255152747,0.046366513912798835
1772454506986612000,4.504612060546875,-0.23790157814621923,0.04135148962922394,0.09733397314925678
1772454506996629000,4.51462890625,-0.5530903941124677,0.006196005095914006,0.05581620530872605
1772454507006646800,4.524646728515625,-0.6848486423105001,0.0195620479516685,0.016729473140556363
1772454507016665000,4.5346650390625,-0.6690197895377874,0.06808163911197335,-0.1167497444980312
1772454507026683000,4.544682861328125,-0.49453649833500385,0.10144033988900482,-0.18517227860270066
1772454507036700000,4.554699951171875,-0.20585458102226256,0.08824687712118029,-0.13856126101007685
1772454507046718000,4.564718017578125,0.053744449669122694,0.0206719088897109,0.008866836306941695
1772454507056736000,4.574736083984375,0.29204584078788753,-0.06264810628853738,0.13391040299693122
1772454507066753800,4.58475390625,0.4510843100994825,-0.09038096654042602,0.15482929065134377
1772454507076772000,4.594772216796875,0.5310211856454611,-0.0923001345673576,0.10007524381456896
1772454507086788900,4.604788818359375,0.5164993238180875,-0.06478175731636583,0.04904024490038864
1772454507096807000,4.614806884765625,0.4521954862117767,-0.03445413133092225,0.021049103605072013
1772454507106825000,4.624824951171875,0.3579349017590284,-0.04700725036859512,-0.02141729303007014
1772454507116843000,4.634843017578125,0.27477380346953867,-0.031068434415385125,-0.04495749649824574
1772454507126859800,4.64485986328125,0.170631291949749,-0.06696607908550649,-0.08038063725810497
1772454507136878000,4.654878173828125,0.0544324319332838,-0.10857165307365357,-0.05749401146098971
1772454507146896000,4.664895751953125,-0.033953707528114316,-0.14569299431983382,-0.07609842076110652
1772454507156914000,4.674913818359375,-0.10823942544460297,-0.1505893515266478,-0.12702287197289988
1772454507166931000,4.684930908203125,-0.1885954031854868,-0.07497417510468513,-0.1405848392595537
1772454507176949000,4.694948974609375,-0.33478432779610157,0.028842684657312927,-0.1445326453035697
1772454507186966800,4.704966796875,-0.3881780643314123,0.10278338852841407,-0.11299165233983657
1772454507196985000,4.714985107421875,-0.3650456105470657,0.13011745872106403,-0.08425287558156996
1772454507207003000,4.7250029296875,-0.23681027577817437,0.1474279283536598,-0.04823167759701609
1772454507217020200,4.735020263671875,-0.13615034567713738,0.08690795666761696,0.015102086567855439
1772454507227038000,4.745037841796875,0.008400748598575591,-0.007557137381285429,0.08288244574489072
1772454507237056000,4.755055908203125,0.1364981362015009,-0.052448966498486696,0.10407954755248501
1772454507247073800,4.76507373046875,0.23732991573810577,-0.060694086143933235,0.061759943543467664
1772454507257091000,4.775091064453125,0.3253787860691547,-0.07206179478932172,-0.018621250837063414
1772454507267108900,4.78510888671875,0.39632337686419483,-0.05941266803126782,-0.03048021816469263
1772454507277127000,4.795126953125,0.3964548942893743,-0.05310154865570366,-0.014978131394623779
1772454507287145000,4.80514501953125,0.33776831204295155,-0.08828308094572275,0.02555037881338503
1772454507297163000,4.8151630859375,0.15973521940410138,-0.10092822564840316,0.032180313780577854
1772454507307180000,4.825179931640625,-0.014948562806844711,-0.10278755324687808,0.04532068552114069
1772454507317198000,4.835197998046875,-0.16068565199673174,-0.054425198474898934,0.038732731098728254
1772454507327215900,4.8452158203125,-0.32942426206767556,-0.0024119199799373745,0.026219039889145642
1772454507337234000,4.85523388671875,-0.38733985994160175,0.04984535987135023,0.01216716106054373
1772454507347251000,4.8652509765625,-0.3611433424115181,0.07883033907618373,-0.013163451222050935
1772454507357269000,4.87526904296875,-0.2598047823965549,0.08575611975137144,0.007361742673348635
1772454507367287000,4.885287109375,-0.1005471173763275,0.044902240913361306,0.0159746179189533
1772454507377305000,4.89530517578125,0.06617372313141823,-0.04473872091472149,0.031493747155368325
1772454507387323000,4.905322998046875,0.20556582720875738,-0.1063157273730263,0.02978242689257022
1772454507397340000,4.91533984375,0.285582782253623,-0.1207159721147269,-0.00280139878813643
1772454507407358000,4.92535791015625,0.26271336331963535,-0.12972498880475758,-0.0005096711217658594
1772454507417376000,4.9353759765625,0.22664134846329687,-0.06425020772293209,-0.004413564958819188
1772454507427393800,4.945393798828125,0.19358020586073396,-0.06281655819062143,-0.015218762616929598
1772454507437410800,4.955410888671875,0.11034136615991592,-0.03826791746541858,-0.033372012349753635
1772454507447428900,4.965428955078125,-0.007106032612919807,-0.010490377821587026,0.00010688530742190777
1772454507457447000,4.975447021484375,-0.11750877357125282,-0.0008931129148229956,-0.01856772141838446
1772454507467465000,4.98546484375,-0.14510346746146677,-0.0004158507918938994,-0.02420006018297281
1772454507477483000,4.99548291015625,-0.139573305863142,0.04848093965034932,0.027995319713512434
1772454507487500000,5.0055,-0.10516250221729279,0.0716586208159104,0.06493471025521867
1772454507497517800,5.015517822265625,-0.07737140897214412,0.06499258705545216,0.10910968720680102
1772454507507536000,5.025535888671875,-0.009739888247847557,0.05143153308425098,0.11567650750963948
1772454507517554000,5.035553955078125,0.06653963383436202,0.038242344632744785,0.12012684711515903
1772454507527571000,5.045571044921875,0.13106909689009189,0.03135463094562292,0.117139045209717
1772454507537588700,5.055588623046875,0.19729484246969223,-0.010576960126496851,0.06126532386036124
1772454507547607000,5.06560693359375,0.2798503760814667,-0.03492185844052583,0.0384074401005404
1772454507557624800,5.075624755859375,0.2780097166508436,-0.06892788067776709,0.01388899358420167
1772454507567643000,5.085642822265625,0.21855974881649015,-0.08192348278593271,-0.01540758602018468
1772454507577660000,5.095659912109375,0.16631167518496512,-0.08757193700168281,-0.05029406718665268
1772454507587678000,5.105677978515625,0.0743698890686035,-0.04773837765473872,-0.059701988100353626
1772454507597695700,5.11569580078125,-0.03608896599113941,-0.008536321144364773,-0.044302105896011926
1772454507607714000,5.125714111328125,-0.08178571828305721,0.02333148348778486,-0.006271805711905471
1772454507617730800,5.135730712890625,-0.06912731224000454,0.02895071160905063,-0.007601661509601399
1772454507627748900,5.145748779296875,-0.01830956367254257,0.02518492933474481,0.013607911620498634
1772454507637767000,5.155766845703125,0.03890519245564937,-0.02450538610536605,0.035078122147894464
1772454507647785000,5.165784912109375,0.1281798051893711,-0.023865371168777346,0.02036748258303851
1772454507657802800,5.175802734375,0.1732838522851467,-0.009732325995899736,0.018159592708642595
1772454507667820000,5.185820068359375,0.19991233149170876,-0.0030512407967820763,0.024380015293182802
1772454507677837800,5.195837890625,0.1324672732502222,-0.02610156925562769,0.00048464171178638933
1772454507687855900,5.20585595703125,0.008066402077674865,-0.02402154811117798,-0.03009180793557316
1772454507697873700,5.215873779296875,-0.06772329066097736,0.008896094367466866,-0.03704588312348351
1772454507707890700,5.225890625,-0.07419979319870472,0.018681063866056502,-0.016008383191237225
1772454507717908700,5.23590869140625,-0.07537818932831288,0.05131115810759365,0.0387068934045732
1772454507727926800,5.2459267578125,-0.045806642407178876,0.05976184679511934,0.061492077254364265
1772454507737944600,5.255944580078125,0.0038560909062623975,0.045161512904055415,0.06126393105429597
1772454507747961900,5.2659619140625,0.042160979381203646,-0.0034316549491137265,0.08465798578374087
1772454507757979600,5.275979736328125,0.02583820561170578,-0.04871164313368499,0.11227584135383367
1772454507767997700,5.285997802734375,-0.0017436287969350814,-0.06347465677317232,0.08784510965356603
1772454507778015500,5.296015380859375,-0.032656068933010096,-0.06569916442222892,0.05408612097995356
1772454507788033800,5.30603369140625,-0.03832943839430809,-0.038772359856218096,-0.023515178624773397
1772454507798050600,5.316050537109375,-0.022655483922362326,-0.00984543098155409,-0.07526251792623662
1772454507808068900,5.32606884765625,0.029336569121479986,0.029017602832801637,-0.0559013217423344
1772454507818086700,5.336086669921875,0.10870002869367598,0.027529227438569066,-0.008489920152793639
1772454507828104700,5.346104736328125,0.10478957725167273,0.009583126783557236,0.06840004827822559
1772454507838122500,5.35612255859375,0.06797288150787353,-0.0236861786769703,0.13571547052436508
1772454507848139800,5.366139892578125,0.054664487123489376,-0.036895313937962054,0.14683912301450036
1772454507858157600,5.376157470703125,0.052657238954305643,-0.009360570074059068,0.08642062980839982
1772454507868176000,5.38617578125,0.06874620396792888,-0.0018171689571812749,0.04625697542398702
1772454507878193700,5.396193603515625,0.10137187776267528,-0.030500754062645137,0.04134874511628877
1772454507888210700,5.406210693359375,0.12952829718887804,-0.05627820593044162,0.03630205618597101
1772454507898228700,5.416228759765625,0.10171908376514911,-0.07484722425676882,-0.0037118098976323378
1772454507908246800,5.426246826171875,0.054769701063632964,-0.07899769499972462,-0.06953987509626895
1772454507918264600,5.4362646484375,0.024319033220410347,-0.06848210967164486,-0.12164707895237951
1772454507928281900,5.44628173828125,0.0638175153940916,-0.04507321356609464,-0.11957019961308687
1772454507938299600,5.456299560546875,0.10388473736643791,-0.011896299096755682,-0.07304800194823183
1772454507948317700,5.466317626953125,0.08142156114578247,0.004095817946270108,0.010139883883483707
1772454507958335700,5.476335693359375,0.05604805043637752,0.008670615048520267,0.08148985887533053
1772454507968353800,5.486353759765625,0.02990121726691723,0.04437799784354865,0.08900637198528275
1772454507978370600,5.49637060546875,-0.04668517880737781,0.07150938507094978,0.034733277065865695
1772454507988388900,5.506388916015625,-0.1011357309192419,0.08102839710973203,-0.03170430289981887
1772454507998406700,5.51640673828125,-0.11433540423214435,0.034672121463157235,-0.12809640122223645
1772454508008424700,5.5264248046875,-0.08293839544951916,0.013799063978157937,-0.16895565035510807
1772454508018441700,5.536441650390625,0.004054243826866149,0.0072599080003798,-0.1414622248822823
1772454508028459800,5.546459716796875,0.10965747554898261,-0.025524646150507032,-0.049202664353908035
1772454508038477600,5.5564775390625,0.209779645511508,-0.044126470767892896,0.06849650808975566
1772454508048495900,5.566495849609375,0.2577425891697407,-0.0251700240265578,0.12395278034517541
1772454508058513700,5.576513671875,0.2575917825222015,0.028085801875405013,0.11925121505809948
1772454508068530700,5.58653076171875,0.18452187013626098,0.07625040558557956,0.07138990514343604
1772454508078548700,5.596548828125,0.08122457726895808,0.05892539597097784,-0.02504640221346635
1772454508088566800,5.60656689453125,0.001911386579275131,-0.024527963263355195,-0.06110023295914288
1772454508098584600,5.61658447265625,-0.036357261538505554,-0.09589662468936294,-0.0607313676807098
1772454508108601600,5.6266015625,-0.0457271474301815,-0.13955229960773138,-0.0892695438329596
1772454508118619600,5.63661962890625,-0.021293547919392586,-0.12746537330970167,-0.0742476143958047
1772454508128637700,5.6466376953125,-0.023975334349274634,-0.08104096433036029,-0.0318061375727877
1772454508138655700,5.65665576171875,-0.051661213654279704,-0.04419716138392687,0.048387708408944304
1772454508148673800,5.666673828125,-0.10756430266201496,-0.020329232931882144,0.12098042260403744
1772454508158690800,5.67669091796875,-0.13506488852798937,0.023155396268516776,0.12564603066174312
1772454508168708600,5.68670849609375,-0.11946458381414413,0.018005612289905548,0.10337269619107246
1772454508178726700,5.6967265625,-0.10120178189277648,-0.006969510219059884,0.05777587430940475
1772454508188744700,5.70674462890625,-0.04009469450116157,-0.04276405984088778,0.04161881706221029
1772454508198761700,5.71676171875,0.02338029106557369,-0.10458711348213255,0.03416941437171772
1772454508208779500,5.726779541015625,0.058337622678279875,-0.14848152905981987,0.005342507238849066
1772454508218797600,5.736797607421875,0.08463584701716899,-0.1598562885005027,-0.015427546529402024
1772454508228816000,5.74681591796875,0.11934183421730994,-0.14094886853266506,-0.04458148909297306
1772454508238832600,5.75683251953125,0.14583996504247188,-0.12459898756053298,-0.05044563645259477
1772454508248850700,5.7668505859375,0.185070151668787,-0.084465678082034,-0.01635580838941969
1772454508258868700,5.77686865234375,0.21925065369009972,-0.027674773389101025,0.04757173411725089
1772454508268886500,5.786886474609375,0.20609365047514439,0.009720051036216319,0.06731716211207676
1772454508278904600,5.796904541015625,0.11426000090837478,0.020052863675914703,0.11698040231559424
1772454508288921600,5.806921630859375,0.0069803604066371915,0.028785547642596065,0.12492821038174443
1772454508298939600,5.816939697265625,-0.07212006431519985,0.03731138392556459,0.07078181971507147
1772454508308957700,5.826957763671875,-0.15222411312162876,0.0505999045656994,-0.028157862464617937
1772454508318975700,5.836975830078125,-0.20507424429953097,0.04322203274145722,-0.0989839414465241
1772454508328992500,5.846992431640625,-0.20574059925377366,0.020198409626446662,-0.10400567859867588
1772454508339010800,5.8570107421875,-0.13634265337884424,0.0008995061229914427,-0.034993234043149274
1772454508349028600,5.867028564453125,-0.03856032454073429,0.006629391544498503,-0.00008955971328541636
1772454508359046700,5.877046630859375,0.04178805441558361,0.053404404059797524,0.019525451401481403
1772454508369064400,5.887064453125,0.10439502497613429,0.08974252250641584,0.07205950693411287
1772454508379081700,5.897081787109375,0.10261807843148708,0.11202851552926003,0.09190012979856692
1772454508389099500,5.907099609375,0.09619242929816245,0.12796141319833695,0.06731135799237527
1772454508399117800,5.917117919921875,0.07538812620043754,0.10462024856675416,0.013985362064186482
1772454508409135600,5.927135498046875,0.051883916494250296,0.04110946103427559,-0.08002013338264077
1772454508419152600,5.937152587890625,0.07444236978292465,-0.05059537452105432,-0.1576049659097567
1772454508429170700,5.947170654296875,0.12583879502117634,-0.11623195856846869,-0.1684405221735127
1772454508439188700,5.957188720703125,0.19301964936852453,-0.1310225178020075,-0.16561799383237957
1772454508449206500,5.96720654296875,0.242443313229084,-0.10347571817412972,-0.1298646530037746
1772454508459224600,5.977224609375,0.27290976316332816,-0.06563972585257143,-0.10180228680288418
1772454508469241600,5.98724169921875,0.27831308351159095,-0.03931063145138323,-0.06033767392169684
1772454508479259600,5.997259765625,0.25925825442969797,0.013239603464491665,-0.01182836669338867
1772454508489277700,6.007277587890625,0.238657364949584,0.015963292807340622,-0.004945347447693348
1772454508499295700,6.017295654296875,0.16970014857947827,-0.009242679315432906,-0.013676012987224385
1772454508509312500,6.0273125,0.04557400269508362,-0.04279237261991948,-0.01233181357034482
1772454508519330800,6.037330810546875,-0.09337269570231436,-0.06859294963497668,-0.02954496030830778
1772454508529348600,6.0473486328125,-0.21193419319689272,-0.03491162930745631,-0.006941654097754508
1772454508539366700,6.05736669921875,-0.2747884165167808,0.013967406282387672,-0.025850526237161827
1772454508549383700,6.0673837890625,-0.2756909183144569,0.05836600852254778,-0.02015524633815512
1772454508559401700,6.077401611328125,-0.2251806282609701,0.06387834220323711,0.04822552185086533
1772454508569419500,6.08741943359375,-0.13155834171175956,0.06432681662309915,0.10598800238915719
1772454508579437800,6.097437744140625,-0.028407179316878316,0.058624659458734095,0.16605242146058008
1772454508589455600,6.10745556640625,0.06642506754398346,0.0021213760681450364,0.16602701302468775
1772454508599472600,6.11747265625,0.13825930065512657,-0.038790699230507014,0.1195199946626555
1772454508609490700,6.12749072265625,0.18005320028960703,-0.05533402041550725,0.055194758075289424
1772454508619508700,6.1375087890625,0.1805985592126846,-0.07070961299538613,-0.052860698237689206
1772454508629526500,6.147526611328125,0.18433482313156127,-0.10332735921200364,-0.11018262280109338
1772454508639543800,6.157543701171875,0.18184183727204797,-0.08314144374094903,-0.12834887814596294
1772454508649561600,6.1675615234375,0.16162030249834058,-0.047524881034530696,-0.08991051775077358
1772454508659579600,6.17757958984375,0.14255553654432296,-0.005272643173299729,0.0010605875693727284
1772454508669597700,6.18759765625,0.11286591620147228,0.030033319213986394,0.09081904743043705
1772454508679615700,6.19761572265625,0.044484453892707825,0.06376421430427581,0.1567300462387502
1772454508689632800,6.2076328125,-0.04322013304531574,0.08061152340453118,0.15982052306737748
1772454508699651000,6.217651123046875,-0.09065233082771301,0.0902573401607573,0.1328468106197193
1772454508709669000,6.227669189453125,-0.10950725342333316,0.09473276854176074,0.0785968773801811
1772454508719687000,6.23768701171875,-0.11988134792149066,0.06670045041926205,-0.021985119513282553
1772454508729704200,6.2477041015625,-0.10490414354205131,0.03560527412742376,-0.04217470651245676
1772454508739722000,6.257721923828125,-0.028261633366346357,0.0007355112003162502,-0.0839476272909902
1772454508749740000,6.267739990234375,0.053120764812827105,-0.05480798724740743,-0.09670029662190936
1772454508759758000,6.277758056640625,0.1403711782425642,-0.07354838008526712,-0.11223323518796824
1772454508769776000,6.287776123046875,0.23990239657461643,-0.07995463039837777,-0.10505550731201656
1772454508779793200,6.297793212890625,0.28779928925931453,-0.10154266775231807,-0.07611129850898869
1772454508789811200,6.307811279296875,0.31999241685569285,-0.08922817977610975,-0.043842493594205
1772454508799829000,6.3178291015625,0.29249416907727716,-0.07471249196119606,0.011072287629079074
1772454508809847000,6.327846923828125,0.24094985980093478,-0.047732678566314274,0.03864108902621083
1772454508819864000,6.337864013671875,0.1424924081802368,-0.019886859459243712,0.0369244761003647
1772454508829882000,6.347882080078125,0.06913081937134266,0.013506876098550856,0.022909166422486305
1772454508839900000,6.35789990234375,-0.010067805027961731,0.06433090827632695,0.018077672879118472
1772454508849918200,6.367918212890625,-0.09997194783687591,0.09309603418540209,0.03478917197156697
1772454508859935000,6.37793505859375,-0.18103285897672175,0.08830061660241335,0.03309893559599295
1772454508869953300,6.387953369140625,-0.29701252328455446,0.08668642287142574,0.0403585148028098
1772454508879971000,6.39797119140625,-0.4074368915528059,0.06732464673221111,-0.02285811208868399
1772454508889989000,6.407989013671875,-0.3810749543279409,0.07881974461693317,0.0012401727868244052
1772454508900007000,6.4180068359375,-0.24811376008093355,0.0669998352246359,-0.010975923715671524
1772454508910024200,6.428024169921875,-0.05134557183384895,0.029156134520657358,0.003576040989020839
1772454508920042000,6.4380419921875,0.16525953578352928,0.012797741448506712,0.06896005678116343
1772454508930060000,6.44806005859375,0.35638299614191055,-0.0493355106530711,0.08697541414694861
1772454508940078000,6.458078125,0.4682160621643066,-0.10321977065168321,0.02965940786767751
1772454508950094800,6.4680947265625,0.5155272639155387,-0.11856869442034512,-0.04622073050024919
1772454508960113200,6.478113037109375,0.48411739565134043,-0.10834332421049475,-0.07071642632866278
1772454508970131200,6.488131103515625,0.4023357690215111,-0.09287252762783318,-0.03432482412913814
1772454508980149000,6.49814892578125,0.24619360567331314,-0.08686963395122438,-0.045725229467730964
1772454508990166000,6.508166015625,0.10528466729223727,-0.097260058529675,-0.02872260194160044
1772454509000184000,6.51818408203125,-0.01969721863865852,-0.11806797835659236,-0.023759590973053125
1772454509010202000,6.5282021484375,-0.10191314503252506,-0.12056092768348753,0.013883015934564173
1772454509020220200,6.53822021484375,-0.1446452022999525,-0.10858896953463554,0.041583508286811406
1772454509030238200,6.54823828125,-0.1800818418622017,-0.07024809643086045,0.07312025433368981
1772454509040255000,6.5582548828125,-0.21687924838364123,-0.04427453746907413,0.14997909240750595
1772454509050273000,6.56827294921875,-0.28699206452965736,-0.00495440753698349,0.23236403695903718
1772454509060291000,6.578291015625,-0.4416214852273464,0.047031471494399006,0.21846438041692598
1772454509070309000,6.58830908203125,-0.5186024335771798,0.10704513762611895,0.19651923672100527
1772454509080326100,6.598326171875,-0.5104734876573086,0.16640852315556257,0.16599919343600048
1772454509090344000,6.608343994140625,-0.44554187354147434,0.21608627137504516,0.12802771990019826
1772454509100362000,6.618362060546875,-0.2859825952261686,0.23540526781845836,0.15512281197151168
1772454509110380300,6.62838037109375,-0.11154840386211871,0.15031612407583742,0.22998503286801278
1772454509120398000,6.638398193359375,0.07001286290287971,0.016202910249494017,0.24144056592732666
1772454509130414800,6.648414794921875,0.2457768415659666,-0.05609357007853687,0.18151512606833128
1772454509140433200,6.65843310546875,0.41182139024734493,-0.10190046821404247,0.1006589528535027
1772454509150451000,6.668450927734375,0.5326403112798929,-0.12767393802646546,0.02573923874925822
1772454509160469000,6.678468994140625,0.5450806906580925,-0.1560346478531137,-0.045325763555057345
1772454509170486000,6.688486083984375,0.5214461325705051,-0.20444486035481094,-0.09260048748711124
1772454509180504000,6.698504150390625,0.47164662113487715,-0.22168602761086076,-0.13441402340382336
1772454509190521900,6.70852197265625,0.3754992000222206,-0.21822357566468417,-0.1907045773591846
1772454509200540200,6.7185400390625,0.15293430721759796,-0.17678433468677102,-0.18320538071021436
1772454509210558000,6.728557861328125,-0.11137713894844055,-0.11206786115895956,-0.10767819309895857
1772454509220575000,6.738574951171875,-0.2977466827780008,-0.04053250139653682,-0.05452241177167743
1772454509230593000,6.748593017578125,-0.4306026630848646,0.04186239829342812,-0.08848035708349197
1772454509240611000,6.758611083984375,-0.43771687900424,0.111490974586457,-0.09291190979015082
1772454509250628900,6.76862890625,-0.36562837887108324,0.12710801123939452,-0.12064331787046975
1772454509260646100,6.778646240234375,-0.22053309471607208,0.04132777996007353,-0.12586803938196972
1772454509270664000,6.788663818359375,-0.028223054921627043,-0.048118061154708264,-0.13502563422983513
1772454509280682000,6.798681884765625,0.13362521111369133,-0.11687438465785234,-0.1412738627033308
1772454509290700000,6.808699951171875,0.28617198031842705,-0.12694390671886502,-0.10406182009954937
1772454509300717000,6.818717041015625,0.38586686477959153,-0.07450056624356657,-0.05771538086039945
1772454509310735000,6.828735107421875,0.4279746526688337,-0.005938413605652749,-0.005760088763525709
1772454509320753200,6.838753173828125,0.37113749768137927,0.023679310544766484,0.03462159685231745
1772454509330771000,6.84877099609375,0.27888416139781474,0.028017924270965156,0.035204419975262136
1772454509340789000,6.8587890625,0.1878057141125202,0.04161309970747679,-0.0007682535592932253
1772454509350806000,6.868805908203125,0.0794376938521862,0.029756949958018957,0.015862307517742737
1772454509360824000,6.878823974609375,-0.06604512831568718,0.029905053191818295,0.039194156331708654
1772454509370841900,6.888841796875,-0.20844284394979476,0.02871376104801893,0.044679629404935986
1772454509380860200,6.898860107421875,-0.2884539537757635,0.054419207125529646,0.05141295624794438
1772454509390877000,6.908876953125,-0.3830377788335085,0.10807448067385703,0.003190046479273587
1772454509400895200,6.918895263671875,-0.38557928000986574,0.1466070404248312,-0.01259100336264819
1772454509410913000,6.9289130859375,-0.3236795809358358,0.13467629106920212,0.01802291048457846
1772454509420931000,6.93893115234375,-0.20547639535963533,0.08863481699284166,0.09107959806276485
1772454509430948900,6.948948974609375,-0.03671615797877312,0.08218571391869336,0.07236250390210189
1772454509440966100,6.958966064453125,0.17024609202444552,0.08567432321943343,-0.00029355785278603434
1772454509450984000,6.96898388671875,0.35641456032395363,0.04442523451875895,-0.03984553291252814
1772454509461002000,6.979001953125,0.4942249481678009,-0.025318163792975246,-0.058745034435391426
1772454509471020000,6.98902001953125,0.6105903969228267,-0.06857201644480228,-0.0309134219501866
1772454509481037000,6.999037109375,0.6860287920057773,-0.13987601513676345,0.019895170629862693
1772454509491055000,7.00905517578125,0.6428256100952625,-0.18641415015626697,0.030874016954982653
1772454509501073200,7.0190732421875,0.5028133282929659,-0.16031108306329697,0.01317412787969224
1772454509511091000,7.029091064453125,0.3688274671733379,-0.07961940709464252,-0.006276897445553913
1772454509521108200,7.039108154296875,0.13278583768010138,0.028036044449545442,0.0560858525629621
1772454509531126000,7.0491259765625,-0.20250877772569656,0.06773037798888981,0.15946889661811292
1772454509541144000,7.05914404296875,-0.4610749582380056,0.10034538425914942,0.22249409259073435
1772454509551162000,7.069162109375,-0.5742296282529831,0.10699125201441347,0.1850424964768812
1772454509561180200,7.07918017578125,-0.5709007760912179,0.1036396400315687,0.053424104274110866
1772454509571197000,7.089197021484375,-0.4388222098976373,0.06862064135950058,-0.027607772567495702
1772454509581215200,7.09921533203125,-0.2223532958805561,0.005208345765434205,-0.01244840742102824
1772454509591233000,7.10923291015625,-0.0374006331115961,-0.0605345482006669,-0.007746522473543882
1772454509601251000,7.1192509765625,0.15595394729971884,-0.09265625452864915,0.022298733773408456
1772454509611268000,7.12926806640625,0.2690373056441545,-0.10928261435460299,0.016750232800794764
1772454509621286100,7.1392861328125,0.30859365548491474,-0.11974716361518949,0.003313334932224825
1772454509631304000,7.149303955078125,0.28426468539237976,-0.11081837255451828,-0.008592435245774686
1772454509641322200,7.159322265625,0.2396802782565355,-0.06019537937417626,0.017554452722612766
1772454509651339000,7.169339111328125,0.12632511723339557,-0.0030859833166003224,0.046385921866167336
1772454509661357000,7.179357177734375,-0.07100947272479534,0.034010186955705284,0.08456055329125374
1772454509671375000,7.189375,-0.2214864499181509,0.045055897105112666,0.10807922991421073
1772454509681393200,7.19939306640625,-0.3060164984732866,0.07682020483016967,0.049670167701225724
1772454509691411000,7.209410888671875,-0.288751475417614,0.09359485055301338,-0.05004756791256368
1772454509701428200,7.21942822265625,-0.21142916628420352,0.09466361229568719,-0.11297401621844619
1772454509711446300,7.2294462890625,-0.10742401740849017,0.08696410730164497,-0.1008680381600745
1772454509721464000,7.239464111328125,0.08061199832856655,0.057828467579744754,-0.07009291043572594
1772454509731482400,7.249482421875,0.2753682622313499,0.0002651537422090769,-0.05177567034680396
1772454509741499100,7.2594990234375,0.40974750658273695,-0.04632810899801552,-0.014845230296533554
1772454509751517200,7.26951708984375,0.47011400474011894,-0.09944032517820596,0.015413043080014175
1772454509761535200,7.27953515625,0.4804144494801759,-0.12328848948385565,-0.008132055758987553
1772454509771553300,7.28955322265625,0.42763796806037424,-0.13789368221312762,-0.07646589323347434
1772454509781571000,7.299571044921875,0.34668343990445133,-0.12129311441555618,-0.15020633442527614
1772454509791588000,7.309588134765625,0.3125631436377764,-0.12605704088173805,-0.14039910742910577
1772454509801606100,7.319606201171875,0.2412269231766462,-0.10165372691135853,-0.11394746436048299
1772454509811624200,7.329624267578125,0.02118424232602119,-0.05933613219633698,-0.050856436610035596
1772454509821642200,7.339642333984375,-0.19235095632672308,0.025045301668345926,0.02628435107716359
1772454509831659000,7.349658935546875,-0.29839550207555293,0.11350644259471446,0.03341843160763383
1772454509841677300,7.35967724609375,-0.38507659118473525,0.17619868028592317,0.026113551954366265
1772454509851695400,7.3696953125,-0.42310967698097224,0.17499869337901472,0.027470638252282513
1772454509861713200,7.379713134765625,-0.3951005570709705,0.11755663130097091,0.050353784317523236
1772454509871731200,7.389731201171875,-0.2589969731450081,0.04017882912065834,0.058688701138272875
1772454509881748200,7.399748291015625,-0.07690496050417422,-0.0370468512378633,0.04414711169712245
1772454509891766000,7.40976611328125,0.10680208611786365,-0.07122150804027914,0.059743105562031266
1772454509901784000,7.4197841796875,0.27145138104856015,-0.07936736856233328,0.043570279923547055
1772454509911802400,7.42980224609375,0.3763087628394365,-0.05823105703126639,0.09146909970385021
1772454509921819100,7.439819091796875,0.40373803703486916,-0.011598777454905212,0.10260994992395862
1772454509931837200,7.449837158203125,0.3796738553583622,-0.005211268374882638,0.12221232988601549
1772454509941855200,7.459855224609375,0.3130003660112619,0.0009502499295398593,0.09724834982557222
1772454509951873000,7.469873046875,0.18942425522506237,-0.00770593473482877,0.04911918275495991
1772454509961890300,7.479890380859375,0.05602759217023849,-0.013985672591440379,-0.018474398845434187
1772454509971908000,7.489908203125,-0.039810616862773894,-0.03177716720663011,-0.05263575777485966
1772454509981926100,7.499926025390625,-0.09000175796449184,-0.032660818173363804,-0.057482056161714715
1772454509991944200,7.509944091796875,-0.1972077487081289,-0.008618008078448473,-0.04512052330654114
1772454510001962200,7.519962158203125,-0.2771428706884384,-0.02643018015548587,-0.04136534462464042
1772454510011979000,7.52997900390625,-0.2775789240181446,-0.009165485893376171,-0.00574027895135805
1772454510021997300,7.539997314453125,-0.24918109705150127,0.028314532597362992,-0.007611461384408175
1772454510032015000,7.55001513671875,-0.17005378432273863,0.03685742961298674,-0.0373040408693254
1772454510042033200,7.560033203125,-0.0386076708137989,0.012259433320723474,-0.02913412361824885
1772454510052050200,7.57005029296875,0.10381693282723427,-0.006471935960464179,0.02524171928958967
1772454510062068200,7.580068115234375,0.24325989030897616,-0.019692688594013453,0.05714387371591292
1772454510072086000,7.5900859375,0.34272798027694223,-0.045288975208625196,0.08013352149608545
1772454510082104300,7.600104248046875,0.37993747473061085,-0.052553888177685436,0.03297348258541897
1772454510092121000,7.61012109375,0.3617822248369455,-0.08121997415907681,0.006276130260573699
1772454510102139100,7.62013916015625,0.25120412731170655,-0.1329748574461788,0.004528336745174602
1772454510112157200,7.6301572265625,0.13087971179783345,-0.17761066597569733,-0.05175365031124092
1772454510122175200,7.64017529296875,-0.009614800563454628,-0.16579481170400975,-0.05622114198096096
1772454510132193000,7.650193115234375,-0.1184592061638832,-0.127428402300179,-0.06754969679289496
1772454510142210300,7.660210205078125,-0.18856208543777464,-0.04638393083848059,-0.05700732392258942
1772454510152228000,7.67022802734375,-0.2587701786518097,-0.00664334700461477,0.028200185502693056
1772454510162246100,7.68024609375,-0.25126433306634427,0.07668682424146682,0.08454668916268274
1772454510172264200,7.69026416015625,-0.24913375077843664,0.15890552711430936,0.08238488975260407
1772454510182281200,7.70028125,-0.21175123784542083,0.17086871743481605,0.10913905029860324
1772454510192299000,7.710299072265625,-0.17658757000565528,0.09620273149646819,0.14925829471913166
1772454510202317300,7.7203173828125,-0.15520342119336128,0.0275632027734071,0.10553938183882274
1772454510212335000,7.730335205078125,-0.09540098665952682,-0.04580466964580118,-0.002170996496686712
1772454510222353200,7.740353271484375,-0.007543254986405372,-0.08929773788098246,-0.12329981459546833
1772454510232370200,7.7503701171875,0.11821604505777358,-0.10943283648025244,-0.19020985264480114
1772454510242388200,7.76038818359375,0.27512042495012284,-0.10615918510444462,-0.2061140356760472
1772454510252406000,7.770406005859375,0.42140170401930804,-0.09130703187678009,-0.136583960454585
1772454510262424300,7.78042431640625,0.5200935489177704,-0.06518255666960031,-0.03898666019402444
1772454510272441000,7.790441162109375,0.5718091231077909,-0.026793241314217446,0.0614425664236769
1772454510282459100,7.800459228515625,0.5098024565279483,0.015611081836186348,0.09551134256566875
1772454510292477200,7.810477294921875,0.38618952086269853,0.05325293982513249,0.08595075640748255
1772454510302495200,7.8204951171875,0.151507489284873,0.08847169885300099,0.05069169276868924
1772454510312512300,7.83051220703125,-0.1070347258299589,0.07010985700394957,0.02610304882666096
1772454510322530300,7.8405302734375,-0.310282923746109,0.06825593623295426,-0.0265033184569329
1772454510332548000,7.850548095703125,-0.42912674531340594,0.05464830317366868,-0.07108462032023817
1772454510342566100,7.860566162109375,-0.4527876068860292,0.03680811057854443,-0.07528529601362534
1772454510352584200,7.870584228515625,-0.34780338384509085,0.021921799352951347,-0.04981202385732904
1772454510362601200,7.880601318359375,-0.1599549996346235,0.02979045036882162,0.0038543099411297585
1772454510372619300,7.890619384765625,0.0027086744368076325,0.025906448542326686,0.06264018784356302
1772454510382637300,7.90063720703125,0.1435468856692314,-0.010735657819546758,0.06756004465697332
1772454510392655000,7.910655029296875,0.2310848838686943,-0.042069538238085805,0.06061413450920954
1772454510402672400,7.92067236328125,0.2795090152978897,-0.05645133400764316,0.02572611440620385
1772454510412690200,7.930690185546875,0.25665713202059265,-0.08828772058822214,-0.029733249422023073
1772454510422708200,7.940708251953125,0.21973697590231894,-0.11597977390568703,-0.023243257215060292
1772454510432726300,7.950726318359375,0.16716040096879003,-0.08651029911953956,-0.009921848085476085
1772454510442744300,7.960744384765625,0.09555237782895565,-0.06299688319358974,0.01084415969531983
1772454510452761000,7.970760986328125,-0.018657938718795775,-0.032990269323438404,0.013630301548819989
1772454510462779400,7.980779296875,-0.12468904046416282,-0.0027914208168163895,-0.003667162471730262
1772454510472797200,7.990797119140625,-0.20944120733737945,0.051002786278165874,-0.002352517942897975
1772454510482815200,8.000815185546875,-0.23678981751203534,0.062107204344868654,0.015211990382848307
1772454510492832300,8.010832275390625,-0.175924137660861,0.031060397239401936,0.004648629523441195
1772454510502850300,8.020850341796875,-0.09355915818512439,0.0074353741651400915,-0.009679180169710888
1772454510512868000,8.0308681640625,-0.056249125966429704,-0.027809030760638415,-0.03370072828088887
1772454510522886400,8.040886474609374,0.0038870705664157865,-0.07365706462413073,-0.005121626463206484
1772454510532903200,8.050903076171876,0.10296353086829185,-0.08527820004131645,0.02284071342931129
1772454510542921000,8.0609208984375,0.1548889484167099,-0.07755220889914781,0.020742818701453506
1772454510552939300,8.070939208984376,0.21577508653402327,-0.06960055577494204,0.014519596805050968
1772454510562957300,8.080957275390626,0.23057868791222572,-0.06583108370620756,0.03997280342085287
1772454510572975000,8.09097509765625,0.18766601338088512,-0.07598587289787828,0.03023760048127733
1772454510582992100,8.1009921875,0.13676935435831547,-0.08690141732897609,0.005084646320529282
1772454510593010200,8.11101025390625,0.05583762255609035,-0.06777067346666008,-0.05368649980365298
1772454510603028200,8.1210283203125,-0.020788521006703375,-0.06391688411533832,-0.04389771264647133
1772454510613046300,8.13104638671875,-0.023950784429907796,-0.03497928771618754,-0.043853836972126733
1772454510623063000,8.14106298828125,0.009327215793728827,0.017773849360644817,-0.01239601964666508
1772454510633081000,8.1510810546875,0.04368482794761658,0.09267466696817428,0.0535801076865755
1772454510643099100,8.16109912109375,0.03750467800796032,0.1379807759746909,0.12214238818865268
1772454510653117200,8.1711171875,-0.015763970842957494,0.12731785459779202,0.185899843958579
1772454510663134200,8.18113427734375,-0.035160160708427424,0.1270753510788083,0.19004499920560045
1772454510673152300,8.19115234375,-0.045534255206584925,0.12312383697405457,0.12838320967382752
1772454510683170000,8.201170166015626,-0.0021709142982959746,0.10709379907343536,0.06748840419286861
1772454510693188000,8.21118798828125,0.04864508070349693,0.08432100891433655,0.03649173810575157
1772454510703205400,8.221205322265625,0.1134533607006073,0.05748199222963303,0.04572010576804168
1772454510713222400,8.231222412109375,0.1334212129741907,0.03347209802363068,0.04582735640164465
1772454510723240400,8.241240478515625,0.1425321556687355,0.015062617640569806,0.026125114527996627
1772454510733258500,8.251258544921875,0.14500877491533756,0.023885865967534482,-0.017406778747076166
1772454510743276300,8.2612763671875,0.14984978520572184,0.01740033987313509,-0.07167735291584394
1772454510753293600,8.27129345703125,0.10393149911761283,-0.010563077731616794,-0.10166735357791185
1772454510763311400,8.281311279296874,0.10811433776021002,-0.03033964521680027,-0.0837226320292335
1772454510773329400,8.291329345703126,0.11180559349358081,-0.029631643077917394,-0.09982612789170817
1772454510783347500,8.301347412109376,0.15226269156634806,-0.0013734803102910518,-0.0979764175049495
1772454510793365500,8.311365478515626,0.16185352673232553,-0.02943973723500967,-0.05698820823016576
1772454510803382300,8.32138232421875,0.10365385122001171,-0.008363667991198599,-0.007614064333448186
1772454510813400600,8.331400634765625,-0.009675590839982031,0.022048275276832282,0.017096297158952802
1772454510823418400,8.34141845703125,-0.10232874009609222,0.06468253472559153,0.05606480064177885
1772454510833436400,8.3514365234375,-0.1605354298710823,0.08910846238657831,0.04636500694230199
1772454510843453400,8.361453369140625,-0.18599954147338865,0.10416490601468831,-0.00410780977816321
1772454510853471500,8.371471435546875,-0.16410218244194982,0.06954378408640623,-0.01126146265878342
1772454510863489300,8.3814892578125,-0.10957564248442649,-0.022321868053823708,0.006556034047342837
1772454510873507600,8.391507568359375,-0.02202303123772144,-0.07102309939134865,-0.013575502621661871
1772454510883524400,8.4015244140625,0.052859483528137206,-0.0909547843730077,0.003664139397582039
1772454510893542700,8.411542724609374,0.14735270769298076,-0.09593301117699593,-0.03446900923964567
1772454510903560400,8.421560546875,0.20757658250927924,-0.12799604612030088,-0.06481475540366954
1772454510913578500,8.43157861328125,0.22682021216154097,-0.14492032944690436,-0.06857125839297659
1772454510923596300,8.44159619140625,0.1802940233081579,-0.13783314766492694,-0.02687890117052011
1772454510933613600,8.451613525390625,0.12310907779633998,-0.09051756199952214,-0.008125968511495739
1772454510943631400,8.46163134765625,0.021025252372026442,-0.047630789094418285,-0.040043612767895684
1772454510953649400,8.4716494140625,-0.1212479600995779,-0.01064297456741333,-0.03457172069544904
1772454510963667500,8.48166748046875,-0.19782441930174827,0.05235942505151033,0.06918650421448982
1772454510973684500,8.4916845703125,-0.22872166186869142,0.07359221922699362,0.12151124154510907
1772454510983702500,8.50170263671875,-0.22052491140961647,0.08696439956258982,0.10112827826514839
1772454510993720600,8.511720458984374,-0.15666414139568804,0.10449603766519576,0.04736563535220921
1772454511003738400,8.52173828125,-0.009985387441515921,0.08864968576841056,-0.00005610496825538575
1772454511013755400,8.53175537109375,0.14024492151439188,0.05485810999944806,-0.05337485830490477
1772454511023773400,8.5417734375,0.27148528331816196,-0.0033098917329683897,-0.036757083644205706
1772454511033791500,8.55179150390625,0.3624491643130779,-0.06993464656751602,0.045073286631330846
1772454511043809500,8.5618095703125,0.3622317221701145,-0.0972789824258536,0.07623058664025738
1772454511053827600,8.57182763671875,0.30406302631795407,-0.11539276779796928,0.05483576117032207
1772454511063844400,8.58184423828125,0.20204408282339573,-0.09516257479377091,-0.028448625572118906
1772454511073862400,8.5918623046875,0.09006839345991612,-0.07092913749758153,-0.07791453027236275
1772454511083880400,8.60188037109375,0.003971241718530655,-0.021622633743286133,-0.07549117558295838
1772454511093898500,8.6118984375,-0.050036242800951,0.02750219330117106,-0.0035582952697761354
1772454511103915500,8.62191552734375,-0.09808160404562949,0.05615012257136404,0.03853740945602767
1772454511113933300,8.631933349609374,-0.12455401590764521,0.12618399172965436,0.07162977831391618
1772454511123951400,8.641951416015624,-0.14213760339319706,0.161641929808259,0.10608124276371672
1772454511133969700,8.6519697265625,-0.09412380633056164,0.14771569578647611,0.11653076798510736
1772454511143986400,8.661986328125,-0.01590542514026165,0.11628430981021373,0.09338818553239106
1772454511154004200,8.672004150390626,0.03449731288552284,0.05294296056050807,0.022240409448603168
1772454511164022500,8.6820224609375,0.0993406641960144,-0.003197882725857198,-0.017565184179181233
1772454511174040300,8.692040283203125,0.1374088213056326,-0.04070197621192783,-0.031825463327765466
1772454511184058400,8.702058349609375,0.17769231637716293,-0.03643036330733448,-0.06567986606671475
1772454511194075400,8.712075439453125,0.1999965026438236,-0.031114684709906575,-0.07036954911975189
1772454511204093400,8.722093505859375,0.18431378034353255,-0.046481582526676356,-0.018338597970781845
1772454511214111200,8.732111328125,0.11126198813617229,-0.03465816600304097,0.01495635338765569
1772454511224129500,8.742129638671875,0.10376023420393467,-0.03273797506280243,0.01719674359243363
1772454511234146300,8.752146240234374,0.0711766459852457,-0.03167377989739179,0.003591823080042377
1772454511244164400,8.762164306640624,0.055582186490297315,-0.01600103100184351,0.035407285603601485
1772454511254182400,8.772182373046874,0.039808863297104834,0.006900171309895813,0.06366167637840844
1772454511264200400,8.782200439453124,0.03474807277619839,0.008970986234582961,0.09122176474612206
1772454511274217500,8.792217529296876,0.03275543765425682,-0.010455964095331729,0.09229500173451378
1772454511284235500,8.802235595703126,0.002673603123426437,-0.037124994507990776,0.05494735918547958
1772454511294253300,8.81225341796875,-0.02069032132923603,-0.04686002391763031,0.027307081721024588
1772454511304271400,8.822271240234375,-0.028232991793751716,-0.07095218957960606,0.004468103591073304
1772454511314289400,8.832289306640625,-0.03731470839381218,-0.09769114342331886,0.004875981139065698
1772454511324306400,8.842306396484375,-0.05584112968742847,-0.11733780091851949,0.01671906134439632
1772454511334324500,8.852324462890625,-0.09709960727095604,-0.12929938380382955,0.046621465921401976
1772454511344342500,8.862342529296875,-0.1532937881797552,-0.11892101498935372,0.008431189402611925
1772454511354360300,8.8723603515625,-0.13134908287525177,-0.07929412066303193,-0.029963925505895165
1772454511364377600,8.882377685546874,-0.059275195789337154,-0.05608173351027071,-0.053190971371671183
1772454511374395400,8.8923955078125,0.023254034337401388,-0.04591974739283323,-0.010953885413799434
1772454511384413400,8.902413330078126,0.058448681837320327,-0.04737612021360546,0.05205544626940973
1772454511394431200,8.91243115234375,0.070706105864048,-0.06687858346514404,0.0696905812791083
1772454511404448500,8.922448486328125,0.07080839719474315,-0.08267989064380526,0.03762839571917429
1772454511414466300,8.93246630859375,0.08404957156181335,-0.06251713685262948,0.004559279872709885
1772454511424484600,8.942484619140625,0.07902794400751591,-0.058195876120030875,0.006807953848643228
1772454511434502400,8.95250244140625,0.09301672187149525,-0.030014760643988846,0.0003228113467339426
1772454511444520400,8.9625205078125,0.07693126398921013,-0.025069303598441183,-0.0035274526069406418
1772454511454537500,8.972537353515625,0.06504851849377155,-0.012630458590202032,0.0073573222265578804
1772454511464555500,8.982555419921875,0.022210662764310836,0.0014562632229179143,0.005149793111765757
1772454511474573300,8.9925732421875,-0.06219371358454227,-0.012570837357454002,-0.0251241025255993
1772454511484591400,9.00259130859375,-0.08996551760733128,-0.030884602281078696,-0.03181317923492752
1772454511494608400,9.0126083984375,-0.06977846962511539,-0.007744440114311873,-0.019912898082798346
1772454511504626400,9.02262646484375,-0.03653495619297027,0.03372833780702204,-0.005295512592233717
1772454511514644500,9.03264453125,-0.0040355391263961786,0.0682751158574596,-0.004000495212478563
1772454511524662500,9.04266259765625,0.02516658996045589,0.058131724842637775,-0.019260599053371696
1772454511534680300,9.052680419921876,0.08127718423902988,0.04880439945105463,-0.002491670685261488
1772454511544697600,9.062697509765625,0.11476385877728462,0.029985242288559675,0.01665741255134344
1772454511554715400,9.07271533203125,0.16153496230244635,-0.0018141367498785256,0.01703442917019129
1772454511564733400,9.0827333984375,0.1741331625908613,-0.006927680371329188,-0.021809160158177836
1772454511574751500,9.09275146484375,0.16645839017927647,-0.03830766495391726,-0.06532612072560004
1772454511584768500,9.1027685546875,0.155263626947999,-0.042127588568255304,-0.08220801708204671
1772454511594786300,9.112786376953125,0.14085750045478343,-0.05685279094800353,-0.07721632800828665
1772454511604804600,9.1228046875,0.09140753310918807,-0.05342972116414457,-0.07591385797443799
1772454511614822400,9.132822509765624,0.06202011058330536,-0.020780556895956395,-0.009774923028610646
1772454511624839400,9.14283935546875,0.013534019833803175,0.023370208062976596,0.038676251671137286
1772454511634857500,9.152857421875,0.0010346037447452544,0.04382588038612157,0.07176502206614241
1772454511644875500,9.16287548828125,-0.003028407910466194,0.07007054790686816,0.07923360438114031
1772454511654893300,9.172893310546876,0.00791150377690792,0.07000460653118788,0.06296937413215636
1772454511664910300,9.182910400390625,-0.013891747230291365,0.020735256449505687,0.05555610220097005
1772454511674928400,9.192928466796875,-0.042865328258275985,-0.01865161857586354,0.04598456539050676
1772454511684946400,9.202946533203125,-0.037864743492007254,-0.04452876795846969,-0.015183421875489874
1772454511694964500,9.212964599609375,-0.025241993284225463,-0.05263597697056829,-0.08008506097816862
1772454511704982800,9.222982666015625,-0.02180091291964054,-0.06307915464956312,-0.11910311182430014
1772454511714999800,9.232999755859375,-0.022591186514496802,-0.04722834577336907,-0.03412359333545901
1772454511725017900,9.243017822265625,0.03075578826963901,-0.06277903919182717,0.06505350519614293
1772454511735036000,9.253035888671874,0.04601999289691448,-0.05696045257356017,0.04667549309700261
1772454511745053700,9.2630537109375,0.04206862492263317,-0.08404679508283734,-0.1349886814866215
1772454511755070700,9.27307080078125,0.06469722083806992,-0.11002678378541021,-0.1583137352336198
1772454511765088800,9.2830888671875,0.10807049861848354,-0.13392737239804117,-0.05986664517673198
1772454511775106800,9.29310693359375,0.10763970598578453,-0.15756854288950561,0.023401502816961146
1772454511785124900,9.303124755859375,0.1920668786883354,-0.14119414853062479,0.02518081484863069
1772454511795143000,9.313142822265625,0.29024785145521165,-0.11083324133008718,0.09798670143694617
1772454511805159700,9.32315966796875,0.2781231138974428,-0.016143837006017566,0.21117636056691408
1772454511815178000,9.333177978515625,0.1901759503751993,-0.008289287580735981,0.25959968827851115
1772454511825195800,9.34319580078125,0.03876256911456585,0.08572528622169047,0.28846926094274966
1772454511835213800,9.3532138671875,-0.24423896447420118,0.15233221313860265,0.20426745796129106
1772454511845230800,9.36323095703125,-0.5053846400856972,0.1999567186227068,0.15468900539781896
1772454511855248600,9.37324853515625,-0.6268424435436726,0.19898816585149615,0.1831555136865005
1772454511865266700,9.3832666015625,-0.6353115812033414,0.20283008210193365,0.16784001726340503
1772454511875285000,9.393284912109374,-0.4734481175988912,0.21998481318354604,0.0811776876536198
1772454511885301800,9.4033017578125,-0.25371289526224133,0.23379648091495037,-0.05164448628176469
1772454511895319800,9.41331982421875,0.008225976553559302,0.19185842356942592,-0.14710638651540503
1772454511905337900,9.423337890625,0.2434849312365055,0.12292579365130513,-0.12697289535133166
1772454511915356000,9.43335595703125,0.41484570650458336,0.028286512079276144,-0.028980474276363383
1772454511925373000,9.443373046875,0.48021805012524127,-0.06798398742377758,0.03127264033415122
1772454511935390700,9.453390625,0.5610995130449533,-0.0825532685894519,0.07165768923414871
1772454511945408800,9.46340869140625,0.5660457372754812,-0.06019870384242385,0.026451008314383215
1772454511955426800,9.4734267578125,0.5489256756484509,-0.08725761035550385,-0.0907619104157202
1772454511965444900,9.48344482421875,0.4592237774133682,-0.13482022958453743,-0.18689524820409714
1772454511975461600,9.493461669921874,0.3248480401933193,-0.25570907404813914,-0.2248940481382422
1772454511985480000,9.50347998046875,0.22014497218132018,-0.3027451121198013,-0.20771113214176146
1772454511995497700,9.513497802734374,0.15305647229254246,-0.24384543511196968,-0.18683221117155624
1772454512005515800,9.523515869140626,0.12414835771620272,-0.1547005862377584,-0.12054041461842134
1772454512015532800,9.53353271484375,0.10939385617673396,-0.037969482508115465,0.011588041431759483
1772454512025550800,9.54355078125,0.05708382322490215,0.07346753340139985,0.1531172808353789
1772454512035568600,9.553568603515625,-0.09318681774139403,0.16418248113654552,0.24238248641993848
1772454512045587000,9.5635869140625,-0.25942016699314113,0.1915003308467567,0.25143114100061353
1772454512055603700,9.573603759765625,-0.4346370331674814,0.15872319281734526,0.20658424700368194
1772454512065621800,9.583621826171875,-0.520340217155218,0.16715656504388898,0.02044917408369947
1772454512075639800,9.593639892578125,-0.5255366167545318,0.16612835450731217,-0.16010019852528348
1772454512085657900,9.603657958984375,-0.43707858110070225,0.15904917336869984,-0.19484021585918962
1772454512095675600,9.613675537109375,-0.25610125170350073,0.10808321196958422,-0.1403973538634367
1772454512105693000,9.62369287109375,-0.02837912226617336,0.018274419293925166,-0.032910883944295345
1772454512115710700,9.633710693359374,0.20785423040688036,-0.058217539962567386,0.06316371852732264
1772454512125728800,9.643728759765626,0.4031698817580938,-0.05885938153006136,0.11109915312412194
1772454512135746800,9.653746826171876,0.4692658634781837,-0.08422799686864017,0.07719136709696613
1772454512145763800,9.663763916015625,0.4486912774831056,-0.11577354727648198,0.0625378325807862
1772454512155781600,9.67378173828125,0.35114568001031876,-0.10597633935082704,0.05336617267495021
1772454512165800000,9.683800048828125,0.1850742433220148,-0.08096051950529218,0.027993785343552006
1772454512175817700,9.693817626953125,0.03192132491767406,-0.0886203135434538,-0.05702271328796632
1772454512185835000,9.7038349609375,-0.04625613974034786,-0.04687262767087668,-0.09808796985433436
1772454512195852800,9.713852783203125,-0.03423895421028137,-0.020617731017060575,-0.13213308199294843
1772454512205870800,9.723870849609375,0.07453764685094356,-0.01967771022059023,-0.11645656110458075
1772454512215888600,9.733888671875,0.15979250254929064,-0.059947322897240515,-0.0440991626358591
1772454512225907000,9.743906982421874,0.17369184856414793,-0.08462591014504432,0.09347403718493878
1772454512235923700,9.753923828125,0.16085165621340275,-0.09301847543716431,0.14239289332851768
1772454512245941800,9.763941650390626,0.17400106064379214,-0.006140694712102413,0.0931853838361334
1772454512255959800,9.773959716796876,0.15783260065317153,0.09379325920194387,0.012483186473464592
1772454512265977900,9.783977783203126,0.14684826530218123,0.08137100000232457,0.022803587156161664
1772454512275995000,9.793994873046875,0.15099544810950755,0.04609831883013248,0.060824836384132504
1772454512286013000,9.804012939453125,0.15130524471104145,0.010910393331944941,0.05168695088373497
1772454512296030700,9.81403076171875,0.08449848437309265,0.008333674711734056,0.052543056256417184
1772454512306048800,9.824048828125,-0.08385200316309928,-0.007820975949242711,0.04921756052894052
1772454512316065800,9.834065673828125,-0.2412532266616821,-0.019353958158940077,0.04476778261242434
1772454512326083800,9.844083740234375,-0.34748832654654976,0.009470642852410673,-0.0879158733348362
1772454512336102000,9.854101806640625,-0.35618016704618927,0.03128222329653799,-0.14519384915865957
1772454512346120000,9.864119873046874,-0.26258827563524245,0.033478564297035336,-0.1347324965021573
1772454512356137700,9.8741376953125,-0.12138649178743362,-0.012438333551585674,-0.055388527081720526
1772454512366155000,9.884155029296876,0.05896247657835483,-0.04251987582147121,0.028378336814884095
1772454512376172800,9.8941728515625,0.2201402960062027,-0.06585815437622368,0.052763046549493445
1772454512386190800,9.90419091796875,0.3269470582991838,-0.08572758777663111,0.07048390534757636
1772454512396208600,9.914208740234375,0.3182031953513622,-0.0877237300299108,0.1190825165608432
1772454512406226000,9.924225830078125,0.24426351439356803,-0.09227204098403453,0.13477555932574906
1772454512416243700,9.93424365234375,0.11089490838944911,-0.1009224534947425,0.0942989163022954
1772454512426262000,9.944261962890625,-0.03517535827755928,-0.12301526203304529,-0.01788046980658546
1772454512436279800,9.95427978515625,-0.1334609604626894,-0.1394159964095801,-0.12252879369035362
1772454512446296600,9.964296630859375,-0.16359247935414314,-0.11787146940380334,-0.11494517016094177
1772454512456315000,9.97431494140625,-0.07619827353954314,-0.07687902234531939,-0.035568960705026985
1772454512466333000,9.9843330078125,0.04552198024690151,-0.021612916066870092,0.07820472712428309
1772454512476350700,9.994350830078124,0.13708733426630496,0.043579102550819517,0.18982742919847367
1772454512486368800,10.00436865234375,0.15895254459381103,0.09577778408266603,0.2271746698887087
1772454512496385800,10.0143857421875,0.11993746202290058,0.10926840316615997,0.2008477126456797
1772454512506403800,10.02440380859375,0.04063070107400417,0.07182422317378223,0.08478917441535741
1772454512516422000,10.034421875,-0.0055681555211544035,0.030260844359546898,-0.08162897508507594
1772454512526440000,10.04443994140625,0.011970423778891563,-0.04719035185053944,-0.18692012691702692
1772454512536456700,10.054456787109375,0.07360942609012126,-0.15963796957470475,-0.18389546359991654
1772454512546474800,10.064474853515625,0.1501432151943445,-0.2592444451000541,-0.1335646948317997
1772454512556492800,10.074492919921875,0.20939327654242515,-0.3260092659924179,-0.12784157707779667
1772454512566510800,10.0845107421875,0.19684826774597167,-0.3077075203001499,-0.1661073299855925
1772454512576528000,10.09452783203125,0.11159107396006583,-0.24078071377910673,-0.0875701651697047
1772454512586545700,10.104545654296874,0.009863222366571426,-0.12879735256582497,-0.03433429521038197
1772454512596563700,10.114563720703124,-0.11246318061947821,0.013752192629128693,-0.008137042461358941
1772454512606581800,10.124581787109374,-0.23442367290258406,0.10774850012250244,-0.004059171163733117
1772454512616599800,10.134599853515626,-0.2764168945014477,0.18683599229753017,0.008648024190799332
1772454512626616800,10.144616943359376,-0.28495266765654087,0.19775405747927724,0.08215760206906124
1772454512636635000,10.154634765625,-0.2643593769609928,0.16865246615745128,0.16513274933239444
1772454512646652700,10.164652587890625,-0.19013328027725218,0.11983999299779534,0.16686879761107265
1772454512656670700,10.174670654296875,-0.08537059103250504,0.04189882131367922,0.08946722182952799
1772454512666687700,10.184687744140625,0.006436755049228668,-0.033737142167985436,0.03671770148188807
1772454512676705800,10.194705810546875,0.11758768402636051,-0.07591361137926578,-0.017615160800749433
1772454512686723600,10.2047236328125,0.1940793875545263,-0.087473919987306,-0.04240693066602107
1772454512696741400,10.214741455078125,0.21339199078977106,-0.07481748670563101,-0.0476711165382294
1772454512706758400,10.22475830078125,0.14306933128535745,-0.06599756284691392,-0.031356073984038085
1772454512716776400,10.2347763671875,0.10219430006146431,-0.04351305157728493,-0.03678815006932709
1772454512726794500,10.24479443359375,0.08567921859025955,0.03584945814684033,0.06833651805534027
1772454512736812300,10.254812255859376,0.053418286454677576,0.1358651720602065,0.08399212401984259
1772454512746829600,10.26482958984375,0.02961655510663986,0.16094349921531975,0.077896592756873
1772454512756847400,10.274847412109375,0.003252279794216156,0.16113186139427124,0.07710097626661881
1772454512766865400,10.284865478515625,0.028065234011411665,0.11341821632198988,0.03429285352171864
1772454512776883500,10.294883544921875,0.08463175536394119,0.026504633631184694,-0.013918059848481788
1772454512786901500,10.304901611328125,0.15346213048398494,-0.06496909658201039,-0.05351788807136472
1772454512796918300,10.314918212890625,0.19190555064678191,-0.09374657051600516,-0.07241369979979935
1772454512806936600,10.3249365234375,0.1961187844276428,-0.11559271081686019,-0.04010143476920202
1772454512816954400,10.334954345703125,0.18355565545260905,-0.11486527332514523,-0.049007950065983456
1772454512826972400,10.344972412109374,0.13120645953416823,-0.09834763457067311,-0.05332736590136774
1772454512836989400,10.354989501953124,0.07892273006737231,-0.07000073407366872,-0.05382608180427924
1772454512847007500,10.365007568359376,0.08372223930358887,-0.012878916925936937,-0.045557585849822495
1772454512857025300,10.375025390625,0.05413315672576427,0.06729132898449898,0.023093382149282842
1772454512867043600,10.385043701171876,-0.005698503902554512,0.11657405000440775,0.0626547506584553
1772454512877061400,10.395061279296876,-0.006206453424692154,0.10661920383162796,0.10057764037875458
1772454512887078400,10.405078369140625,-0.011438508859276771,0.08044460587240755,0.11910923103783279
1772454512897096400,10.415096435546875,0.006928922480344772,0.04330094319656491,0.17728463062541558
1772454512907114500,10.425114501953125,0.018686580291390417,0.06810074567124247,0.010059372843045275
1772454512917132300,10.43513232421875,0.019285130706429482,0.043987464156001806,-0.06952197411339729
1772454512927149600,10.445149658203125,0.024851532661914824,-0.01239456747509539,-0.06600868702912703
1772454512937167400,10.45516748046875,0.027602877196669578,-0.02368731118813157,-0.013114605969999683
1772454512947185400,10.465185302734374,0.06229951204657554,0.03085924864411354,0.045913240020233205
1772454512957203500,10.475203369140624,0.08847790939807891,0.053396659144759176,0.07801406339039094
1772454512967220500,10.485220458984376,0.09675473935604095,0.04429616477899253,0.10443964956915006
1772454512977238500,10.495238525390626,0.0689022713124752,0.04715469601526856,0.13643155550500377
1772454512987256600,10.505256591796876,0.008780103304982185,0.062475307004898784,0.13085182827706449
1772454512997274400,10.5152744140625,-0.02087853737771511,0.09545403202101588,0.0398266135829268
1772454513007291400,10.52529150390625,-0.03126899848878383,0.071108476119861,0.020504692246776538
1772454513017309400,10.535309326171875,-0.06597615473270416,-0.002515928343683481,0.028599592049862257
1772454513027327500,10.545327392578125,-0.05679448488950729,-0.058275590292736885,0.031982738531997894
1772454513037345500,10.555345458984375,-0.025063129585981368,-0.07584164212159812,-0.002897730735503137
1772454513047363600,10.565363525390625,0.01540916605591774,-0.05613609404601157,-0.048281307158712296
1772454513057380400,10.57538037109375,0.09780746327936649,-0.021361936980485916,-0.04495992135077249
1772454513067398700,10.585398681640624,0.09455050731003284,0.0007692308068275451,0.02336545425604563
1772454513077416400,10.59541650390625,0.07215045945346354,-0.01571991250552237,0.05440262131690979
1772454513087434500,10.6054345703125,0.03690378950536251,-0.014139511446282267,0.048130614675604734
1772454513097451500,10.615451416015626,0.059956163790822026,-0.0002810819637030363,-0.004567298782384023
1772454513107469300,10.62546923828125,0.08727262526154518,0.00965754372663796,-0.03453977520420449
1772454513117487400,10.6354873046875,0.13295417998433112,-0.04938157828450203,-0.063345102976216
1772454513127505700,10.645505615234375,0.1614239031434059,-0.18063991413637995,-0.13547438264433292
1772454513137522400,10.6555224609375,0.1913444096326828,-0.3031223844669759,-0.2316604004680179
1772454513147540200,10.665540283203125,0.305019888651371,-0.34013905976228415,-0.2016364701368846
1772454513157558500,10.67555859375,0.45963118917047974,-0.26025055340267716,-0.16381613204218445
1772454513167576300,10.685576416015625,0.2849906615793705,-0.08360555412136018,-0.14989974356098099
1772454513177594400,10.695594482421875,-0.3467278635680675,0.08966251607276499,-0.1712137497465126
1772454513187611400,10.705611328125,-0.7538771703511477,0.09415558970831334,-0.01514799208579352
1772454513197629400,10.71562939453125,-0.739694915741682,0.1733945461180061,0.14830177944558673
1772454513207647200,10.725647216796874,-0.4633639459580183,0.3072824267558753,0.46027920475043355
1772454513217665500,10.73566552734375,-0.013874211573600768,0.4018344684358686,0.5152113663667812
1772454513227682300,10.745682373046876,0.25996903304755686,0.40270423700772223,0.48908882738836107
1772454513237700400,10.755700439453125,0.34085108048915863,0.27457024372145533,0.42269667573329056
1772454513247718400,10.765718505859375,0.2621615746557712,0.005096373290941119,0.2163393145543523
1772454513257736400,10.775736328125,0.057840779072046274,-0.19234131171554325,-0.04235168421429116
1772454513267753500,10.78575341796875,-0.09401274717152118,-0.3797133836511522,-0.23578535317722707
