time,seconds_elapsed,z,y,x
1772454502543723800,0.061723876953125,-1.009429931640625,0.0813140869140625,-0.028533935546875
1772454502553741600,0.071741455078125,-1.015960693359375,0.0782623291015625,-0.0262908935546875
1772454502563759900,0.081759765625,-1.014129638671875,0.0735321044921875,-0.0233917236328125
1772454502573777700,0.091777587890625,-1.0046234130859375,0.071380615234375,-0.0179290771484375
1772454502583795700,0.101795654296875,-0.9984130859375,0.0708160400390625,-0.0146484375
1772454502593812700,0.111812744140625,-0.9972686767578125,0.06939697265625,-0.0120086669921875
1772454502603830800,0.121830810546875,-0.9922943115234375,0.0706787109375,-0.009368896484375
1772454502613848600,0.1318486328125,-0.9927825927734375,0.0731964111328125,-0.0113525390625
1772454502623867000,0.141866943359375,-0.997467041015625,0.0764007568359375,-0.010284423828125
1772454502633884700,0.151884765625,-1.0048065185546875,0.07928466796875,-0.0069427490234375
1772454502643902000,0.16190185546875,-1.0111541748046875,0.077728271484375,-0.0075531005859375
1772454502653919700,0.171919677734375,-1.013580322265625,0.0754547119140625,-0.0071563720703125
1772454502663937800,0.181937744140625,-1.0052490234375,0.078155517578125,-0.0062103271484375
1772454502673955600,0.19195556640625,-1.0002593994140625,0.0788726806640625,-0.0062408447265625
1772454502683972900,0.201972900390625,-0.998138427734375,0.0809783935546875,-0.0000762939453125
1772454502693991400,0.211991455078125,-0.99591064453125,0.085418701171875,0.00128173828125
1772454502704009200,0.22200927734375,-0.990966796875,0.087799072265625,-0.0001983642578125
1772454502714027500,0.232027587890625,-0.981231689453125,0.0865020751953125,-0.0024261474609375
1772454502724045300,0.24204541015625,-0.9765472412109375,0.0874481201171875,-0.003448486328125
1772454502734062000,0.25206201171875,-0.9804840087890625,0.0910491943359375,-0.006439208984375
1772454502744080400,0.262080322265625,-0.98992919921875,0.0916595458984375,-0.0049285888671875
1772454502754098400,0.272098388671875,-0.99163818359375,0.092529296875,-0.009124755859375
1772454502764116200,0.2821162109375,-0.9932403564453125,0.0966796875,-0.0098114013671875
1772454502774134300,0.29213427734375,-0.99908447265625,0.098358154296875,-0.0035858154296875
1772454502784151300,0.3021513671875,-1.005126953125,0.09588623046875,0.0035552978515625
1772454502794169000,0.312169189453125,-1.007904052734375,0.09234619140625,0.007293701171875
1772454502804187400,0.3221875,-1.01422119140625,0.0888214111328125,0.0110015869140625
1772454502814205400,0.332205322265625,-1.0121917724609375,0.0866546630859375,0.0059051513671875
1772454502824222200,0.34222216796875,-1.0099334716796875,0.085357666015625,0.0002593994140625
1772454502834240300,0.352240234375,-1.0007781982421875,0.0853271484375,-0.005126953125
1772454502844258300,0.36225830078125,-0.99017333984375,0.0895233154296875,-0.00604248046875
1772454502854276400,0.3722763671875,-0.9819793701171875,0.092864990234375,-0.00518798828125
1772454502864294400,0.38229443359375,-0.98272705078125,0.091552734375,-0.0034637451171875
1772454502874311200,0.392311279296875,-0.984954833984375,0.0881500244140625,0.0017242431640625
1772454502884329200,0.4023291015625,-0.9871368408203125,0.0839080810546875,0.0005950927734375
1772454502894347300,0.41234716796875,-0.99456787109375,0.08233642578125,-0.0034637451171875
1772454502904365300,0.422365234375,-1.001434326171875,0.0808563232421875,-0.0045623779296875
1772454502914383400,0.43238330078125,-1.001251220703125,0.079345703125,-0.0087432861328125
1772454502924400400,0.442400390625,-0.995361328125,0.0802764892578125,-0.0060272216796875
1772454502934418200,0.452418212890625,-0.9873504638671875,0.0830230712890625,-0.004852294921875
1772454502944436200,0.462436279296875,-0.985443115234375,0.0834503173828125,-0.004241943359375
1772454502954454500,0.47245458984375,-0.98431396484375,0.0837249755859375,-0.0029144287109375
1772454502964472300,0.482472412109375,-0.9819183349609375,0.0840911865234375,-0.0040283203125
1772454502974489000,0.492489013671875,-0.979095458984375,0.0834503173828125,-0.0084686279296875
1772454502984507400,0.50250732421875,-0.977783203125,0.0821380615234375,-0.0158233642578125
1772454502994525200,0.512525146484375,-0.984130859375,0.0832672119140625,-0.0175933837890625
1772454503004543200,0.522543212890625,-0.9893646240234375,0.0830841064453125,-0.0154266357421875
1772454503014560300,0.532560302734375,-0.9962005615234375,0.0835113525390625,-0.0170745849609375
1772454503024578300,0.542578369140625,-1.002593994140625,0.0825653076171875,-0.0186004638671875
1772454503034596000,0.55259619140625,-1.005859375,0.0807647705078125,-0.0146026611328125
1772454503044614400,0.562614501953125,-1.0008697509765625,0.0785369873046875,-0.01300048828125
1772454503054632200,0.572632080078125,-0.9933929443359375,0.0768585205078125,-0.011749267578125
1772454503064649200,0.582649169921875,-0.987548828125,0.0814666748046875,-0.0074005126953125
1772454503074667300,0.592667236328125,-0.9815826416015625,0.0857696533203125,-0.000457763671875
1772454503084685300,0.602685302734375,-0.9814300537109375,0.0899505615234375,0.0015106201171875
1772454503094703000,0.612703125,-0.983642578125,0.092376708984375,-0.0005645751953125
1772454503104721400,0.622721435546875,-0.9861602783203125,0.09326171875,0.0027008056640625
1772454503114738200,0.63273828125,-0.9921112060546875,0.087646484375,0.0005340576171875
1772454503124756200,0.642756103515625,-0.99365234375,0.0879364013671875,-0.00653076171875
1772454503134774300,0.652774169921875,-0.9935455322265625,0.0920257568359375,-0.0109100341796875
1772454503144792300,0.662792236328125,-0.9953765869140625,0.097808837890625,-0.0118255615234375
1772454503154810000,0.67281005859375,-1.0011749267578125,0.099212646484375,-0.018035888671875
1772454503164827400,0.682827392578125,-1.000640869140625,0.0943450927734375,-0.0210418701171875
1772454503174845200,0.69284521484375,-0.99615478515625,0.0904693603515625,-0.016357421875
1772454503184863200,0.70286328125,-0.990966796875,0.0868072509765625,-0.007415771484375
1772454503194881300,0.71288134765625,-0.988616943359375,0.088348388671875,-0.003082275390625
1772454503204899300,0.7228994140625,-0.989898681640625,0.087127685546875,-0.005859375
1772454503214916400,0.732916259765625,-0.9966888427734375,0.0838775634765625,-0.010101318359375
1772454503224934400,0.742934326171875,-1.0002288818359375,0.0820159912109375,-0.0118560791015625
1772454503234952200,0.7529521484375,-0.99737548828125,0.0826263427734375,-0.0121307373046875
1772454503244970200,0.76297021484375,-0.9876251220703125,0.0894927978515625,-0.0145111083984375
1772454503254987300,0.7729873046875,-0.9751739501953125,0.0926361083984375,-0.020660400390625
1772454503265005300,0.78300537109375,-0.9761505126953125,0.0904541015625,-0.0261993408203125
1772454503275023000,0.793023193359375,-0.9846038818359375,0.08697509765625,-0.0242919921875
1772454503285041400,0.80304150390625,-0.993408203125,0.080352783203125,-0.0242919921875
1772454503295059200,0.81305908203125,-0.992218017578125,0.076416015625,-0.0255584716796875
1772454503305076500,0.823076416015625,-0.98712158203125,0.0771942138671875,-0.0263214111328125
1772454503315094300,0.83309423828125,-0.9831695556640625,0.08123779296875,-0.0196685791015625
1772454503325112300,0.8431123046875,-0.986328125,0.0867462158203125,-0.0190582275390625
1772454503335130000,0.853130126953125,-0.9958038330078125,0.0914154052734375,-0.0143585205078125
1772454503345148400,0.8631484375,-1.0048065185546875,0.0907135009765625,-0.016143798828125
1772454503355165200,0.873165283203125,-1.0080718994140625,0.0870361328125,-0.02227783203125
1772454503365183200,0.883183349609375,-1.0055999755859375,0.0818634033203125,-0.019683837890625
1772454503375201300,0.893201171875,-0.999847412109375,0.07989501953125,-0.0157623291015625
1772454503385219300,0.90321923828125,-0.9990692138671875,0.0820159912109375,-0.0144195556640625
1772454503395237000,0.913237060546875,-0.99737548828125,0.0811614990234375,-0.01959228515625
1772454503405254400,0.92325439453125,-0.99969482421875,0.080291748046875,-0.023590087890625
1772454503415272200,0.933272216796875,-0.994781494140625,0.082489013671875,-0.0234527587890625
1772454503425290200,0.943290283203125,-0.9889373779296875,0.086273193359375,-0.01971435546875
1772454503435308300,0.953308349609375,-0.9811859130859375,0.0911102294921875,-0.0164031982421875
1772454503445326300,0.963326416015625,-0.97882080078125,0.09320068359375,-0.01336669921875
1772454503455343400,0.97334326171875,-0.98028564453125,0.092559814453125,-0.01171875
1772454503465361400,0.983361328125,-0.969146728515625,0.080322265625,-0.017120361328125
1772454503475379200,0.993379150390625,-0.974456787109375,0.07135009765625,-0.00958251953125
1772454503485397200,1.003397216796875,-1.0012054443359375,0.0821380615234375,-0.0110626220703125
1772454503495414300,1.013414306640625,-1.0113525390625,0.0936126708984375,-0.0160369873046875
1772454503505432300,1.023432373046875,-1.012725830078125,0.1046600341796875,-0.0126800537109375
1772454503515450000,1.0334501953125,-1.01287841796875,0.10223388671875,-0.017333984375
1772454503525468400,1.043468505859375,-1.0077667236328125,0.087310791015625,-0.029541015625
1772454503535486200,1.053486328125,-1.0041961669921875,0.0621337890625,-0.0264892578125
1772454503545503500,1.06350341796875,-0.98358154296875,0.0389862060546875,-0.0227203369140625
1772454503555521300,1.073521240234375,-0.9707183837890625,0.07305908203125,-0.0299224853515625
1772454503565539300,1.083539306640625,-0.96875,0.111663818359375,-0.012969970703125
1772454503575557000,1.09355712890625,-0.9667816162109375,0.1234283447265625,0.0013885498046875
1772454503585575400,1.103575439453125,-0.9705963134765625,0.1180267333984375,0.01568603515625
1772454503595592200,1.11359228515625,-0.98004150390625,0.103179931640625,0.0084075927734375
1772454503605610500,1.123610595703125,-0.9897613525390625,0.091094970703125,-0.005035400390625
1772454503615628300,1.133628173828125,-1.00341796875,0.0896759033203125,-0.012237548828125
1772454503625646300,1.143646240234375,-1.0062713623046875,0.090362548828125,-0.0214691162109375
1772454503635663400,1.153663330078125,-1.0015411376953125,0.0960693359375,-0.0240478515625
1772454503645681400,1.163681396484375,-0.994476318359375,0.099884033203125,-0.0234222412109375
1772454503655699200,1.17369921875,-0.9880523681640625,0.104248046875,-0.0224761962890625
1772454503665717200,1.18371728515625,-0.9735107421875,0.1059722900390625,-0.02520751953125
1772454503675735300,1.1937353515625,-0.967132568359375,0.1080780029296875,-0.020477294921875
1772454503685752300,1.20375244140625,-0.9698333740234375,0.1123504638671875,-0.013702392578125
1772454503695770400,1.213770263671875,-0.978912353515625,0.1154327392578125,-0.0071258544921875
1772454503705788400,1.223788330078125,-0.9827728271484375,0.116455078125,-0.006256103515625
1772454503715806200,1.23380615234375,-0.9832305908203125,0.1097412109375,-0.0093231201171875
1772454503725824300,1.24382421875,-0.980865478515625,0.1034088134765625,-0.011566162109375
1772454503735841300,1.25384130859375,-0.9879302978515625,0.0985870361328125,-0.0072021484375
1772454503745859300,1.263859375,-1.0012054443359375,0.0941314697265625,-0.003814697265625
1772454503755877400,1.27387744140625,-1.006988525390625,0.09771728515625,-0.00396728515625
1772454503765895400,1.2838955078125,-1.0105133056640625,0.1031646728515625,-0.0195770263671875
1772454503775912200,1.293912109375,-1.0108184814453125,0.102935791015625,-0.030548095703125
1772454503785930500,1.303930419921875,-1.0073089599609375,0.1062774658203125,-0.0350494384765625
1772454503795948300,1.3139482421875,-1.00396728515625,0.104644775390625,-0.0260162353515625
1772454503805966300,1.32396630859375,-0.9945068359375,0.1012420654296875,-0.0203094482421875
1772454503815984000,1.333984130859375,-0.987823486328125,0.096771240234375,-0.0118865966796875
1772454503826001400,1.34400146484375,-0.9819183349609375,0.0917510986328125,-0.0086517333984375
1772454503836019200,1.354019287109375,-0.9794769287109375,0.091552734375,-0.006561279296875
1772454503846037500,1.36403759765625,-0.9820709228515625,0.0921630859375,-0.005828857421875
1772454503856055300,1.37405517578125,-0.9836273193359375,0.0920562744140625,-0.0070648193359375
1772454503866073300,1.3840732421875,-0.9860992431640625,0.0885467529296875,-0.0066680908203125
1772454503876090400,1.39409033203125,-0.9874420166015625,0.0862884521484375,-0.0059967041015625
1772454503886108400,1.4041083984375,-0.9857025146484375,0.08392333984375,-0.0077667236328125
1772454503896126200,1.414126220703125,-0.9858551025390625,0.08447265625,-0.01055908203125
1772454503906144300,1.424144287109375,-0.9910888671875,0.089630126953125,-0.0110015869140625
1772454503916162300,1.434162353515625,-0.9972381591796875,0.0889739990234375,-0.0133819580078125
1772454503926179300,1.444179443359375,-0.9952545166015625,0.0894775390625,-0.0152130126953125
1772454503936197400,1.454197265625,-0.993743896484375,0.0890045166015625,-0.015777587890625
1772454503946215400,1.46421533203125,-0.9878692626953125,0.0870819091796875,-0.018829345703125
1772454503956233200,1.474233154296875,-0.9818115234375,0.0891265869140625,-0.0170135498046875
1772454503966250500,1.48425048828125,-0.98321533203125,0.090087890625,-0.0159454345703125
1772454503976268300,1.494268310546875,-0.989471435546875,0.0894775390625,-0.0177001953125
1772454503986286300,1.504286376953125,-1.0016632080078125,0.0919647216796875,-0.018096923828125
1772454503996304400,1.514304443359375,-1.009307861328125,0.08978271484375,-0.018768310546875
1772454504006322400,1.524322509765625,-1.01287841796875,0.0892333984375,-0.0214691162109375
1772454504016339200,1.534339111328125,-1.008697509765625,0.0901031494140625,-0.0267333984375
1772454504026357500,1.544357421875,-0.9987640380859375,0.0916595458984375,-0.027191162109375
1772454504036375300,1.554375244140625,-0.991241455078125,0.092864990234375,-0.0235595703125
1772454504046393300,1.564393310546875,-0.9884796142578125,0.0952301025390625,-0.017425537109375
1772454504056411400,1.574411376953125,-0.985504150390625,0.0966339111328125,-0.019561767578125
1772454504066428400,1.584428466796875,-0.9854888916015625,0.0989227294921875,-0.0214385986328125
1772454504076446200,1.5944462890625,-0.9912109375,0.1043243408203125,-0.0196990966796875
1772454504086464500,1.604464599609375,-0.9962158203125,0.1044464111328125,-0.0157623291015625
1772454504096482300,1.614482421875,-0.9981689453125,0.1028289794921875,-0.014801025390625
1772454504106499000,1.6244990234375,-0.9932861328125,0.0994873046875,-0.019073486328125
1772454504116517400,1.634517333984375,-0.988616943359375,0.09820556640625,-0.020111083984375
1772454504126535400,1.644535400390625,-0.9868621826171875,0.1009063720703125,-0.0211029052734375
1772454504136553200,1.65455322265625,-0.9905242919921875,0.1002655029296875,-0.0213165283203125
1772454504146571500,1.664571533203125,-0.9936981201171875,0.0971832275390625,-0.0233917236328125
1772454504156588300,1.67458837890625,-0.9920501708984375,0.098052978515625,-0.0245208740234375
1772454504166606000,1.684606201171875,-0.9908447265625,0.1006927490234375,-0.023895263671875
1772454504176624400,1.694624267578125,-0.98870849609375,0.10272216796875,-0.022705078125
1772454504186642400,1.704642333984375,-0.9894561767578125,0.1050567626953125,-0.0264892578125
1772454504196660200,1.71466015625,-0.98822021484375,0.1032867431640625,-0.027069091796875
1772454504206677200,1.72467724609375,-0.98797607421875,0.0994415283203125,-0.02593994140625
1772454504216695300,1.7346953125,-0.986175537109375,0.098114013671875,-0.022430419921875
1772454504226713300,1.74471337890625,-0.9860687255859375,0.100250244140625,-0.026824951171875
1772454504236731400,1.7547314453125,-0.9938507080078125,0.1069488525390625,-0.02716064453125
1772454504246748200,1.764748046875,-0.9906158447265625,0.108795166015625,-0.0357208251953125
1772454504256766200,1.77476611328125,-0.9896392822265625,0.1015167236328125,-0.0442962646484375
1772454504266784300,1.7847841796875,-0.996246337890625,0.099090576171875,-0.03607177734375
1772454504276802300,1.79480224609375,-0.9983978271484375,0.0957183837890625,-0.0282135009765625
1772454504286820400,1.8048203125,-1.0021514892578125,0.093841552734375,-0.0213623046875
1772454504296837400,1.81483740234375,-1.008880615234375,0.0947265625,-0.0182952880859375
1772454504306855200,1.824855224609375,-1.013214111328125,0.096954345703125,-0.016937255859375
1772454504316873200,1.834873291015625,-1.0146636962890625,0.1122283935546875,-0.0234527587890625
1772454504326891500,1.8448916015625,-0.9909515380859375,0.1141815185546875,-0.036834716796875
1772454504336909300,1.854909423828125,-0.9858245849609375,0.106201171875,-0.0267333984375
1772454504346926300,1.86492626953125,-0.98370361328125,0.089202880859375,-0.0115966796875
1772454504356944400,1.8749443359375,-0.9868927001953125,0.072540283203125,0.001129150390625
1772454504366962200,1.884962158203125,-0.98907470703125,0.0625,0.0121307373046875
1772454504376980200,1.894980224609375,-0.994293212890625,0.06488037109375,0.0131683349609375
1772454504386997200,1.904997314453125,-1.0074005126953125,0.0707550048828125,0.013519287109375
1772454504397015300,1.915015380859375,-1.021636962890625,0.0709075927734375,0.001129150390625
1772454504407033000,1.925033203125,-1.0259857177734375,0.0653076171875,-0.020172119140625
1772454504417051400,1.935051513671875,-1.020233154296875,0.0604400634765625,0.0030364990234375
1772454504427069200,1.945069091796875,-1.00628662109375,0.0635833740234375,0.0263519287109375
1772454504437086500,1.95508642578125,-0.989532470703125,0.071380615234375,0.0407867431640625
1772454504447104300,1.965104248046875,-0.9668731689453125,0.08782958984375,0.05584716796875
1772454504457122300,1.975122314453125,-0.9303741455078125,0.1132354736328125,0.0658416748046875
1772454504467140000,1.98514013671875,-0.8865814208984375,0.140594482421875,0.0549774169921875
1772454504477158400,1.995158447265625,-0.8583831787109375,0.1478729248046875,0.0229339599609375
1772454504487175200,2.005175048828125,-0.887847900390625,0.138397216796875,0.033782958984375
1772454504497193200,2.015193115234375,-1.1153106689453125,0.083099365234375,-0.065093994140625
1772454504507211300,2.025211181640625,-1.1608428955078125,0.08349609375,-0.0908355712890625
1772454504517229300,2.035229248046875,-1.1104736328125,0.0804595947265625,-0.055694580078125
1772454504527246300,2.045246337890625,-1.0692291259765625,0.0533447265625,-0.024139404296875
1772454504537264400,2.055264404296875,-1.0283355712890625,0.032501220703125,-0.010955810546875
1772454504547282200,2.0652822265625,-0.9892730712890625,0.0281524658203125,-0.0180816650390625
1772454504557300200,2.07530029296875,-0.97271728515625,0.0223388671875,-0.042236328125
1772454504567318300,2.085318359375,-0.9681396484375,0.0071868896484375,-0.061126708984375
1772454504577335300,2.095335205078125,-0.97174072265625,0.007171630859375,-0.056243896484375
1772454504587353300,2.105353271484375,-0.9776153564453125,0.0168304443359375,-0.0337066650390625
1772454504597371400,2.115371337890625,-0.9730377197265625,0.0263214111328125,-0.0027618408203125
1772454504607389200,2.12538916015625,-0.9597320556640625,0.0352325439453125,0.0327911376953125
1772454504617407200,2.1354072265625,-0.940887451171875,0.051422119140625,0.06854248046875
1772454504627424300,2.14542431640625,-0.9161376953125,0.065460205078125,0.0936737060546875
1772454504637442300,2.1554423828125,-0.9025421142578125,0.072723388671875,0.1061553955078125
1772454504647460000,2.165460205078125,-0.9225616455078125,0.06842041015625,0.1064605712890625
1772454504657478400,2.175478515625,-0.9676361083984375,0.0616455078125,0.08367919921875
1772454504667495200,2.1854951171875,-1.013946533203125,0.057525634765625,0.0545654296875
1772454504677513500,2.195513427734375,-1.0456085205078125,0.0574951171875,0.0471343994140625
1772454504687531300,2.20553125,-1.02191162109375,0.071380615234375,0.0537109375
1772454504697548500,2.215548583984375,-1.0246734619140625,0.0608062744140625,0.0676727294921875
1772454504707566600,2.225566650390625,-1.0890960693359375,0.0258026123046875,0.0388031005859375
1772454504717583600,2.23558349609375,-1.07232666015625,0.002532958984375,-0.0069732666015625
1772454504727601400,2.245601318359375,-1.0547943115234375,-0.0013580322265625,-0.012603759765625
1772454504737619700,2.25561962890625,-1.0198822021484375,0.002960205078125,0.0011138916015625
1772454504747637500,2.265637451171875,-0.971649169921875,0.027587890625,0.0224456787109375
1772454504757654800,2.27565478515625,-0.9373016357421875,0.0728759765625,0.0571136474609375
1772454504767672600,2.285672607421875,-0.9073944091796875,0.1267852783203125,0.0935516357421875
1772454504777690600,2.295690673828125,-0.883392333984375,0.1273345947265625,0.1212310791015625
1772454504787708400,2.30570849609375,-0.8809967041015625,0.102447509765625,0.134429931640625
1772454504797726700,2.315726806640625,-0.90350341796875,0.0797119140625,0.129119873046875
1772454504807743500,2.325743408203125,-0.9402008056640625,0.053955078125,0.09283447265625
1772454504817761500,2.335761474609375,-0.984954833984375,0.02801513671875,0.038970947265625
1772454504827779600,2.345779541015625,-1.0158233642578125,0.00146484375,-0.0217742919921875
1772454504837797600,2.355797607421875,-1.0437164306640625,-0.0167083740234375,-0.0750579833984375
1772454504847815400,2.3658154296875,-1.0919036865234375,-0.0379180908203125,-0.1121826171875
1772454504857832700,2.375832763671875,-1.1234283447265625,-0.0460968017578125,-0.127960205078125
1772454504867850500,2.3858505859375,-1.1192626953125,-0.0329437255859375,-0.1262054443359375
1772454504877868500,2.39586865234375,-1.0924835205078125,-0.0025634765625,-0.1211700439453125
1772454504887886600,2.405886474609375,-1.06365966796875,0.0238037109375,-0.1079559326171875
1772454504897903400,2.4159033203125,-1.0372314453125,0.0384063720703125,-0.08404541015625
1772454504907921700,2.425921630859375,-1.00689697265625,0.0402984619140625,-0.0494232177734375
1772454504917939700,2.435939697265625,-0.9783477783203125,0.040557861328125,-0.0179443359375
1772454504927957500,2.44595751953125,-0.9555511474609375,0.04254150390625,0.002960205078125
1772454504937975600,2.4559755859375,-0.9375762939453125,0.0472412109375,0.0082855224609375
1772454504947992600,2.46599267578125,-0.9197998046875,0.050048828125,0.0064239501953125
1772454504958010600,2.4760107421875,-0.91748046875,0.053924560546875,0.0022125244140625
1772454504968028700,2.486028564453125,-0.9261932373046875,0.051605224609375,0.0010833740234375
1772454504978046700,2.496046630859375,-0.935791015625,0.04833984375,0.000885009765625
1772454504988063500,2.5060634765625,-0.943756103515625,0.0431365966796875,-0.0088348388671875
1772454504998081500,2.51608154296875,-0.9570159912109375,0.0395050048828125,-0.0179901123046875
1772454505008099600,2.526099609375,-0.984527587890625,0.0374603271484375,-0.0323638916015625
1772454505018117600,2.53611767578125,-1.005462646484375,0.037506103515625,-0.041961669921875
1772454505028135400,2.546135498046875,-1.019073486328125,0.0442047119140625,-0.0417938232421875
1772454505038152400,2.55615234375,-1.0196533203125,0.0536956787109375,-0.0355987548828125
1772454505048170500,2.56617041015625,-1.015869140625,0.0621490478515625,-0.028900146484375
1772454505058188500,2.5761884765625,-1.0145721435546875,0.063629150390625,-0.0195159912109375
1772454505068206600,2.58620654296875,-1.016448974609375,0.05828857421875,-0.0072174072265625
1772454505078224600,2.596224609375,-1.015594482421875,0.0491943359375,-0.005828857421875
1772454505088241700,2.60624169921875,-1.0065765380859375,0.0439605712890625,-0.016265869140625
1772454505098259500,2.616259521484375,-0.995361328125,0.0453948974609375,-0.024383544921875
1772454505108277500,2.626277587890625,-0.9762420654296875,0.0433197021484375,-0.0230712890625
1772454505118295600,2.636295654296875,-0.965362548828125,0.0386962890625,-0.016143798828125
1772454505128312600,2.6463125,-0.9683380126953125,0.0360870361328125,-0.01025390625
1772454505138330400,2.656330322265625,-0.978973388671875,0.03662109375,-0.0048675537109375
1772454505148348700,2.6663486328125,-0.98907470703125,0.0399169921875,-0.005767822265625
1772454505158366500,2.676366455078125,-0.9937896728515625,0.0480499267578125,-0.01531982421875
1772454505168384500,2.686384521484375,-0.9955291748046875,0.0539703369140625,-0.020904541015625
1772454505178401500,2.696401611328125,-0.997314453125,0.0526885986328125,-0.0164947509765625
1772454505188419600,2.706419677734375,-1.00677490234375,0.0488128662109375,-0.009368896484375
1772454505198437400,2.716437255859375,-1.0148773193359375,0.0418701171875,-0.01171875
1772454505208455700,2.72645556640625,-1.0136871337890625,0.0400543212890625,-0.02191162109375
1772454505218472400,2.736472412109375,-1.0123748779296875,0.0399169921875,-0.0340423583984375
1772454505228490500,2.746490478515625,-1.006927490234375,0.040771484375,-0.038818359375
1772454505238508500,2.756508544921875,-0.99737548828125,0.041656494140625,-0.0407867431640625
1772454505248526600,2.766526611328125,-0.9908294677734375,0.041656494140625,-0.0339202880859375
1772454505258544400,2.77654443359375,-0.9829559326171875,0.04833984375,-0.02178955078125
1772454505268561700,2.786561767578125,-0.973663330078125,0.0560150146484375,-0.0178680419921875
1772454505278579500,2.796579345703125,-0.9771881103515625,0.0638885498046875,-0.0117034912109375
1772454505288597500,2.806597412109375,-0.99407958984375,0.06634521484375,-0.010162353515625
1772454505298615600,2.816615478515625,-1.022552490234375,0.0641632080078125,-0.006927490234375
1772454505308633600,2.826633544921875,-1.04180908203125,0.0635223388671875,-0.0081329345703125
1772454505318650400,2.836650390625,-1.04962158203125,0.0648651123046875,-0.011871337890625
1772454505328668700,2.846668701171875,-1.0483856201171875,0.068878173828125,-0.0186309814453125
1772454505338686500,2.8566865234375,-1.041168212890625,0.0733795166015625,-0.0194244384765625
1772454505348704500,2.86670458984375,-1.024322509765625,0.0713348388671875,-0.01934814453125
1772454505358721500,2.876721435546875,-1.006378173828125,0.061859130859375,-0.01666259765625
1772454505368739600,2.886739501953125,-0.9881439208984375,0.0569305419921875,-0.0153961181640625
1772454505378757400,2.89675732421875,-0.9746551513671875,0.0497894287109375,-0.01611328125
1772454505388775700,2.906775634765625,-0.964874267578125,0.0472259521484375,-0.0209808349609375
1772454505398793500,2.91679345703125,-0.9619293212890625,0.04425048828125,-0.0234527587890625
1772454505408810500,2.926810546875,-0.9608917236328125,0.045166015625,-0.024993896484375
1772454505418828500,2.93682861328125,-0.9643707275390625,0.0468902587890625,-0.02685546875
1772454505428846600,2.9468466796875,-0.9691162109375,0.049774169921875,-0.0247344970703125
1772454505438864400,2.956864501953125,-0.9810333251953125,0.0528106689453125,-0.01806640625
1772454505448881700,2.966881591796875,-0.9913330078125,0.056549072265625,-0.0134124755859375
1772454505458899500,2.9768994140625,-1.0028839111328125,0.0673980712890625,-0.009185791015625
1772454505468917500,2.98691748046875,-1.009002685546875,0.072509765625,-0.0078277587890625
1772454505478935600,2.996935546875,-1.0094757080078125,0.073516845703125,-0.009674072265625
1772454505488953600,3.00695361328125,-1.007659912109375,0.0678558349609375,-0.0160675048828125
1772454505498970600,3.016970703125,-1.0006103515625,0.0592193603515625,-0.02203369140625
1772454505508988700,3.02698876953125,-0.9934539794921875,0.0515289306640625,-0.0271759033203125
1772454505519006500,3.03700634765625,-0.988372802734375,0.0496368408203125,-0.02557373046875
1772454505529024500,3.0470244140625,-0.986236572265625,0.052154541015625,-0.0220947265625
1772454505539041500,3.05704150390625,-0.9871673583984375,0.057769775390625,-0.0214996337890625
1772454505549059600,3.0670595703125,-0.9872894287109375,0.062347412109375,-0.016754150390625
1772454505559077400,3.077077392578125,-0.9962615966796875,0.064178466796875,-0.014678955078125
1772454505569095700,3.087095703125,-1.0063629150390625,0.061859130859375,-0.014190673828125
1772454505579113500,3.097113525390625,-1.0096893310546875,0.0614776611328125,-0.013885498046875
1772454505589130800,3.107130859375,-1.01080322265625,0.059722900390625,-0.01617431640625
1772454505599148500,3.1171484375,-1.010986328125,0.0613861083984375,-0.0186309814453125
1772454505609166600,3.12716650390625,-1.0121002197265625,0.061370849609375,-0.0199737548828125
1772454505619184400,3.137184326171875,-1.0105438232421875,0.059295654296875,-0.0226593017578125
1772454505629201700,3.14720166015625,-1.0098114013671875,0.05755615234375,-0.019439697265625
1772454505639219500,3.157219482421875,-1.00634765625,0.0563201904296875,-0.010101318359375
1772454505649237800,3.16723779296875,-1.0020294189453125,0.05645751953125,-0.00689697265625
1772454505659255600,3.177255615234375,-0.9906463623046875,0.057403564453125,-0.0064697265625
1772454505669273600,3.187273681640625,-0.9808807373046875,0.0560455322265625,-0.008148193359375
1772454505679290600,3.19729052734375,-0.9737548828125,0.0536346435546875,-0.009979248046875
1772454505689308700,3.20730859375,-0.9699249267578125,0.0503387451171875,-0.0091705322265625
1772454505699327000,3.217326904296875,-0.9649200439453125,0.051300048828125,-0.007354736328125
1772454505709344800,3.2273447265625,-0.9644927978515625,0.0510711669921875,-0.008544921875
1772454505719363000,3.237363037109375,-0.964996337890625,0.05084228515625,-0.0151519775390625
1772454505729379800,3.2473798828125,-0.9651641845703125,0.0549774169921875,-0.016448974609375
1772454505739398000,3.25739794921875,-0.975555419921875,0.05999755859375,-0.0169219970703125
1772454505749416000,3.267416015625,-0.9935455322265625,0.0634307861328125,-0.01312255859375
1772454505759434000,3.27743408203125,-1.0104522705078125,0.0661163330078125,-0.010223388671875
1772454505769451000,3.287450927734375,-1.021026611328125,0.0682373046875,-0.005706787109375
1772454505779469000,3.297468994140625,-1.0260467529296875,0.07025146484375,-0.005889892578125
1772454505789486800,3.30748681640625,-1.0247802734375,0.06951904296875,-0.00848388671875
1772454505799505000,3.3175048828125,-1.0125274658203125,0.06787109375,-0.0088958740234375
1772454505809523000,3.32752294921875,-0.999420166015625,0.0641937255859375,-0.0134429931640625
1772454505819540000,3.3375400390625,-0.98944091796875,0.0589141845703125,-0.0167999267578125
1772454505829558000,3.34755810546875,-0.9853515625,0.05328369140625,-0.0165557861328125
1772454505839576000,3.357576171875,-0.983184814453125,0.0559844970703125,-0.01129150390625
1772454505849593900,3.36759375,-0.983245849609375,0.058258056640625,-0.01263427734375
1772454505859611100,3.377611083984375,-0.9871063232421875,0.0596923828125,-0.0107574462890625
1772454505869629000,3.38762890625,-0.992462158203125,0.0637969970703125,-0.0042266845703125
1772454505879647000,3.39764697265625,-0.9963226318359375,0.06365966796875,-0.00390625
1772454505889664800,3.407664794921875,-0.9984130859375,0.0650482177734375,-0.0053558349609375
1772454505899683000,3.41768310546875,-1.0013427734375,0.0601043701171875,-0.0080108642578125
1772454505909699800,3.427699951171875,-1.001373291015625,0.0527191162109375,-0.0141448974609375
1772454505919718100,3.43771826171875,-0.997467041015625,0.047760009765625,-0.0196075439453125
1772454505929736000,3.44773583984375,-0.99322509765625,0.04730224609375,-0.0223541259765625
1772454505939754000,3.45775390625,-0.99053955078125,0.0501251220703125,-0.019561767578125
1772454505949771000,3.46777099609375,-0.98834228515625,0.05596923828125,-0.0106201171875
1772454505959789000,3.4777890625,-0.991668701171875,0.06463623046875,-0.0096435546875
1772454505969806800,3.487806884765625,-0.9927215576171875,0.065521240234375,-0.0106964111328125
1772454505979825000,3.497824951171875,-0.9976654052734375,0.0638427734375,-0.00653076171875
1772454505989843000,3.507843017578125,-0.998931884765625,0.058074951171875,-0.0048980712890625
1772454505999860000,3.51785986328125,-0.9973297119140625,0.05511474609375,-0.0019378662109375
1772454506009878000,3.5278779296875,-0.9922637939453125,0.0514373779296875,-0.0046234130859375
1772454506019896000,3.53789599609375,-0.99322509765625,0.051513671875,-0.00469970703125
1772454506029913900,3.547913818359375,-0.992431640625,0.056793212890625,-0.005035400390625
1772454506039931100,3.55793115234375,-0.9935150146484375,0.0583648681640625,-0.007232666015625
1772454506049949000,3.567948974609375,-0.999481201171875,0.059112548828125,-0.007659912109375
1772454506059967000,3.577967041015625,-1.0015411376953125,0.05621337890625,-0.0068817138671875
1772454506069985000,3.587985107421875,-1.0023345947265625,0.0553436279296875,-0.0074005126953125
1772454506080003000,3.598003173828125,-1.0030059814453125,0.0543060302734375,-0.0076904296875
1772454506090019800,3.608019775390625,-1.0006256103515625,0.0507659912109375,-0.0092926025390625
1772454506100038100,3.6180380859375,-0.9986572265625,0.049835205078125,-0.0091705322265625
1772454506110056000,3.628055908203125,-0.9902496337890625,0.05010986328125,-0.008697509765625
1772454506120074000,3.638073974609375,-0.983673095703125,0.0544281005859375,-0.0098114013671875
1772454506130092000,3.648092041015625,-0.98040771484375,0.059783935546875,-0.0068359375
1772454506140109000,3.658109130859375,-0.974334716796875,0.06036376953125,-0.0025482177734375
1772454506150126800,3.668126953125,-0.9734954833984375,0.0585174560546875,0.0027923583984375
1772454506160145200,3.678145263671875,-0.97637939453125,0.0529327392578125,0.0008697509765625
1772454506170163000,3.688162841796875,-0.9835968017578125,0.0448150634765625,-0.0064544677734375
1772454506180180000,3.698179931640625,-0.98699951171875,0.0427093505859375,-0.01519775390625
1772454506190198000,3.708197998046875,-0.9970245361328125,0.0481719970703125,-0.0196075439453125
1772454506200216000,3.718216064453125,-1.0080108642578125,0.0533905029296875,-0.0196533203125
1772454506210233900,3.72823388671875,-1.0137176513671875,0.0598602294921875,-0.0182952880859375
1772454506220252200,3.738252197265625,-1.01953125,0.0644683837890625,-0.01385498046875
1772454506230269000,3.74826904296875,-1.022796630859375,0.0654449462890625,-0.00946044921875
1772454506240287000,3.758286865234375,-1.0223236083984375,0.06298828125,-0.002716064453125
1772454506250305000,3.768304931640625,-1.0130767822265625,0.0572357177734375,-0.0008697509765625
1772454506260323000,3.778322998046875,-1.00042724609375,0.05230712890625,0.000213623046875
1772454506270339800,3.78833984375,-0.9898834228515625,0.046142578125,0.002960205078125
1772454506280358100,3.798358154296875,-0.9775390625,0.0447235107421875,0.003936767578125
1772454506290376000,3.8083759765625,-0.967437744140625,0.0441131591796875,0.0027313232421875
1772454506300394000,3.81839404296875,-0.958740234375,0.0449371337890625,0.0021820068359375
1772454506310412000,3.828412109375,-0.9592132568359375,0.0447845458984375,-0.00042724609375
1772454506320429000,3.838428955078125,-0.9652862548828125,0.0465545654296875,-0.000213623046875
1772454506330446800,3.84844677734375,-0.9765472412109375,0.0468597412109375,-0.0005950927734375
1772454506340465200,3.858465087890625,-1.00372314453125,0.0460662841796875,-0.0028076171875
1772454506350483000,3.86848291015625,-1.0197296142578125,0.0467376708984375,-0.005279541015625
1772454506360500000,3.8785,-1.0309906005859375,0.0526123046875,-0.00653076171875
1772454506370518000,3.88851806640625,-1.038177490234375,0.057098388671875,-0.011810302734375
1772454506380536000,3.8985361328125,-1.0293731689453125,0.0587158203125,-0.013885498046875
1772454506390553900,3.908553955078125,-1.016357421875,0.0566558837890625,-0.0129852294921875
1772454506400572200,3.918572265625,-1.0054168701171875,0.052398681640625,-0.0122833251953125
1772454506410589000,3.9285888671875,-0.9929351806640625,0.0460357666015625,-0.0040130615234375
1772454506420607000,3.93860693359375,-0.984710693359375,0.043121337890625,0.003265380859375
1772454506430625000,3.948625,-0.976470947265625,0.0387115478515625,0.0059814453125
1772454506440643000,3.95864306640625,-0.970611572265625,0.0327301025390625,-0.001617431640625
1772454506450660000,3.96866015625,-0.968536376953125,0.0303802490234375,-0.0061798095703125
1772454506460678000,3.978677978515625,-0.9631805419921875,0.0276336669921875,-0.011962890625
1772454506470696000,3.988696044921875,-0.9588470458984375,0.0274810791015625,-0.010223388671875
1772454506480714000,3.9987138671875,-0.9595184326171875,0.0297088623046875,-0.0095062255859375
1772454506490732000,4.00873193359375,-0.9634246826171875,0.03515625,-0.0055389404296875
1772454506500748800,4.018748779296875,-0.979644775390625,0.0460052490234375,-0.005401611328125
1772454506510767000,4.02876708984375,-1.0106353759765625,0.057403564453125,-0.0074462890625
1772454506520785000,4.038784912109375,-1.0469818115234375,0.061431884765625,-0.0100250244140625
1772454506530803000,4.048802978515625,-1.069488525390625,0.0645751953125,-0.012969970703125
1772454506540820000,4.058820068359375,-1.073211669921875,0.0697021484375,-0.0169219970703125
1772454506550838000,4.068838134765625,-1.063018798828125,0.071807861328125,-0.0186767578125
1772454506560855800,4.078855712890625,-1.0432586669921875,0.0642547607421875,-0.013397216796875
1772454506570873900,4.088873779296875,-1.0134735107421875,0.056488037109375,-0.0043487548828125
1772454506580892200,4.09889208984375,-0.984375,0.046661376953125,0.00408935546875
1772454506590909000,4.108908935546875,-0.95953369140625,0.03887939453125,0.007080078125
1772454506600927000,4.118927001953125,-0.9413604736328125,0.0352935791015625,0.0070953369140625
1772454506610945000,4.128945068359375,-0.9336700439453125,0.0331878662109375,0.0034942626953125
1772454506620962800,4.138962890625,-0.9386749267578125,0.03448486328125,-0.001007080078125
1772454506630980000,4.14897998046875,-0.950347900390625,0.039459228515625,-0.0068817138671875
1772454506640998000,4.158997802734375,-0.9717559814453125,0.04315185546875,-0.0132293701171875
1772454506651016000,4.169015869140625,-0.989532470703125,0.0451202392578125,-0.0165557861328125
1772454506661034000,4.179033935546875,-1.01348876953125,0.0518646240234375,-0.014862060546875
1772454506671052000,4.189052001953125,-1.0323028564453125,0.0602264404296875,-0.012481689453125
1772454506681068800,4.19906884765625,-1.0398406982421875,0.067596435546875,-0.0104827880859375
1772454506691087000,4.209087158203125,-1.037017822265625,0.06982421875,-0.008056640625
1772454506701105000,4.21910498046875,-1.0273284912109375,0.0626373291015625,-0.0051116943359375
1772454506711123000,4.229123046875,-1.01165771484375,0.0556793212890625,-0.003204345703125
1772454506721140000,4.239139892578125,-0.9925384521484375,0.04840087890625,0.001312255859375
1772454506731158000,4.249157958984375,-0.9747161865234375,0.0412750244140625,-0.0014190673828125
1772454506741175800,4.25917578125,-0.9571685791015625,0.034637451171875,-0.0066070556640625
1772454506751194000,4.269194091796875,-0.9457550048828125,0.0321197509765625,-0.0093536376953125
1772454506761212000,4.2792119140625,-0.9377593994140625,0.0332489013671875,-0.0096588134765625
1772454506771229000,4.28922900390625,-0.9367218017578125,0.0347900390625,-0.010223388671875
1772454506781247000,4.2992470703125,-0.9390716552734375,0.038177490234375,-0.0054473876953125
1772454506791265000,4.30926513671875,-0.95477294921875,0.0417938232421875,-0.0008087158203125
1772454506801282800,4.31928271484375,-0.975616455078125,0.046356201171875,-0.0027618408203125
1772454506811300000,4.329300048828125,-0.99810791015625,0.04864501953125,-0.0049591064453125
1772454506821318000,4.33931787109375,-1.0185699462890625,0.049835205078125,-0.012359619140625
1772454506831336000,4.3493359375,-1.0399017333984375,0.054290771484375,-0.014312744140625
1772454506841354000,4.35935400390625,-1.0614013671875,0.0589752197265625,-0.0138702392578125
1772454506851372000,4.3693720703125,-1.06591796875,0.060821533203125,-0.0090484619140625
1772454506861388800,4.379388916015625,-1.060028076171875,0.06146240234375,-0.00732421875
1772454506871407000,4.389406982421875,-1.0454559326171875,0.0616912841796875,-0.0061492919921875
1772454506881425000,4.3994248046875,-1.0204925537109375,0.0578765869140625,-0.002410888671875
1772454506891443000,4.40944287109375,-0.995574951171875,0.0491180419921875,0.00250244140625
1772454506901460000,4.4194599609375,-0.972869873046875,0.0395660400390625,0.0071258544921875
1772454506911478000,4.42947802734375,-0.9534149169921875,0.0328521728515625,0.0066680908203125
1772454506921495800,4.439495849609375,-0.9422760009765625,0.02972412109375,-0.001220703125
1772454506931514000,4.44951416015625,-0.9423980712890625,0.0302581787109375,-0.007049560546875
1772454506941532000,4.459531982421875,-0.9468994140625,0.0329132080078125,-0.0089263916015625
1772454506951549000,4.469548828125,-0.958465576171875,0.0408935546875,-0.00775146484375
1772454506961567000,4.47956689453125,-0.9748077392578125,0.0516815185546875,-0.0085906982421875
1772454506971585000,4.4895849609375,-0.9948577880859375,0.0569000244140625,-0.005859375
1772454506981602800,4.499602783203125,-1.02264404296875,0.059783935546875,-0.0019073486328125
1772454506991619800,4.509619873046875,-1.05474853515625,0.056671142578125,-0.0069122314453125
1772454507001638000,4.519637939453125,-1.0682220458984375,0.05743408203125,-0.0105438232421875
1772454507011656000,4.529656005859375,-1.06671142578125,0.060791015625,-0.022735595703125
1772454507021674000,4.539674072265625,-1.0490570068359375,0.06195068359375,-0.0277252197265625
1772454507031692000,4.549692138671875,-1.0197601318359375,0.0581207275390625,-0.02105712890625
1772454507041709000,4.559708984375,-0.993408203125,0.048919677734375,-0.0045928955078125
1772454507051726800,4.569726806640625,-0.9691925048828125,0.0386810302734375,0.00897216796875
1772454507061745000,4.579744873046875,-0.9530181884765625,0.034912109375,0.0113372802734375
1772454507071763000,4.589762939453125,-0.9448699951171875,0.0346221923828125,0.005523681640625
1772454507081780000,4.599780029296875,-0.946319580078125,0.0380706787109375,-0.0002288818359375
1772454507091797800,4.6097978515625,-0.95281982421875,0.0423431396484375,-0.0037078857421875
1772454507101816000,4.619816162109375,-0.9623565673828125,0.0426025390625,-0.008575439453125
1772454507111834000,4.629834228515625,-0.9707489013671875,0.0459747314453125,-0.011474609375
1772454507121852000,4.639851806640625,-0.9812774658203125,0.0440521240234375,-0.0156402587890625
1772454507131869000,4.649868896484375,-0.9930419921875,0.041351318359375,-0.013916015625
1772454507141887000,4.659886962890625,-1.001983642578125,0.0388031005859375,-0.0164642333984375
1772454507151904800,4.66990478515625,-1.0095062255859375,0.0391693115234375,-0.02227783203125
1772454507161922800,4.6799228515625,-1.017669677734375,0.0473175048828125,-0.0243377685546875
1772454507171939800,4.68993994140625,-1.0325775146484375,0.0578155517578125,-0.025146484375
1772454507181958000,4.6999580078125,-1.038055419921875,0.064788818359375,-0.0217132568359375
1772454507191976000,4.709975830078125,-1.0357513427734375,0.0666961669921875,-0.018035888671875
1772454507201994000,4.719993896484375,-1.022735595703125,0.067474365234375,-0.0134429931640625
1772454507212010800,4.7300107421875,-1.0125274658203125,0.0603485107421875,-0.00616455078125
1772454507222029000,4.740029052734375,-0.997833251953125,0.0499114990234375,0.0013885498046875
1772454507232046800,4.750046875,-0.98480224609375,0.0447845458984375,0.0040740966796875
1772454507242065000,4.76006494140625,-0.9745330810546875,0.043731689453125,0.0001068115234375
1772454507252083000,4.7700830078125,-0.965545654296875,0.0427703857421875,-0.0079345703125
1772454507262100000,4.780099853515625,-0.958282470703125,0.04461669921875,-0.0092620849609375
1772454507272117800,4.79011767578125,-0.958221435546875,0.046142578125,-0.0080718994140625
1772454507282136000,4.800135986328125,-0.964141845703125,0.0436859130859375,-0.0046539306640625
1772454507292153900,4.81015380859375,-0.9822235107421875,0.0436248779296875,-0.0048980712890625
1772454507302172000,4.820171875,-0.999969482421875,0.044525146484375,-0.0044097900390625
1772454507312189000,4.83018896484375,-1.0147857666015625,0.0501556396484375,-0.0057220458984375
1772454507322207000,4.84020703125,-1.031982421875,0.0555877685546875,-0.0072784423828125
1772454507332224800,4.850224853515625,-1.0379180908203125,0.0604248046875,-0.008453369140625
1772454507342243000,4.8602431640625,-1.035308837890625,0.0623626708984375,-0.0103759765625
1772454507352259800,4.870259765625,-1.025054931640625,0.0617218017578125,-0.0074310302734375
1772454507362278000,4.88027783203125,-1.0088958740234375,0.0561370849609375,-0.0057220458984375
1772454507372296000,4.8902958984375,-0.9919586181640625,0.04583740234375,-0.0035247802734375
1772454507382314000,4.90031396484375,-0.977783203125,0.038818359375,-0.0034637451171875
1772454507392331000,4.9103310546875,-0.969635009765625,0.037109375,-0.0068817138671875
1772454507402349000,4.92034912109375,-0.971954345703125,0.036407470703125,-0.0069427490234375
1772454507412366800,4.930366943359375,-0.9756011962890625,0.043670654296875,-0.0076446533203125
1772454507422385000,4.940385009765625,-0.9789276123046875,0.044677734375,-0.0089111328125
1772454507432403000,4.95040283203125,-0.98736572265625,0.0481414794921875,-0.01080322265625
1772454507442420000,4.960419921875,-0.999298095703125,0.05181884765625,-0.00732421875
1772454507452437800,4.970437744140625,-1.010528564453125,0.0533447265625,-0.009002685546875
1772454507462456000,4.9804560546875,-1.013336181640625,0.053558349609375,-0.0092010498046875
1772454507472473900,4.990473876953125,-1.012786865234375,0.058319091796875,-0.0034942626953125
1772454507482491100,5.0004912109375,-1.009307861328125,0.060150146484375,0.0005340576171875
1772454507492509000,5.010509033203125,-1.0065155029296875,0.0587005615234375,0.005218505859375
1772454507502527000,5.02052685546875,-0.999664306640625,0.05645751953125,0.0060272216796875
1772454507512544800,5.030544677734375,-0.9919281005859375,0.054290771484375,0.0065460205078125
1772454507522563000,5.04056298828125,-0.985382080078125,0.0529022216796875,0.006195068359375
1772454507532579800,5.050579833984375,-0.9786529541015625,0.048126220703125,0.0003662109375
1772454507542598000,5.060597900390625,-0.970245361328125,0.0453948974609375,-0.0022125244140625
1772454507552616000,5.070615966796875,-0.970428466796875,0.0419769287109375,-0.0050506591796875
1772454507562634000,5.080634033203125,-0.976470947265625,0.0410003662109375,-0.0084228515625
1772454507572651000,5.090651123046875,-0.9817657470703125,0.0410308837890625,-0.01239013671875
1772454507582669000,5.1006689453125,-0.9911041259765625,0.0457763671875,-0.013702392578125
1772454507592686800,5.110686767578125,-1.0023345947265625,0.0504150390625,-0.0121917724609375
1772454507602705000,5.120704833984375,-1.0069732666015625,0.054107666015625,-0.008087158203125
1772454507612723000,5.130722900390625,-1.00567626953125,0.054840087890625,-0.0079345703125
1772454507622740000,5.140739990234375,-1.0005035400390625,0.0543060302734375,-0.0055694580078125
1772454507632758000,5.150758056640625,-0.99468994140625,0.0488433837890625,-0.0033416748046875
1772454507642776000,5.160776123046875,-0.9856109619140625,0.04840087890625,-0.0050506591796875
1772454507652793900,5.1707939453125,-0.9810333251953125,0.049346923828125,-0.0057373046875
1772454507662811100,5.18081103515625,-0.97833251953125,0.0496673583984375,-0.00555419921875
1772454507672829000,5.190828857421875,-0.9852142333984375,0.04718017578125,-0.0083160400390625
1772454507682847000,5.200846923828125,-0.997894287109375,0.0474700927734375,-0.0115966796875
1772454507692864800,5.21086474609375,-1.005615234375,0.050994873046875,-0.0121917724609375
1772454507702882800,5.2208828125,-1.0062713623046875,0.0521392822265625,-0.009674072265625
1772454507712899600,5.230899658203125,-1.0063934326171875,0.0554962158203125,-0.003662109375
1772454507722918000,5.24091796875,-1.003387451171875,0.05621337890625,-0.00103759765625
1772454507732935700,5.250935791015625,-0.9983367919921875,0.0544586181640625,-0.00103759765625
1772454507742953700,5.26095361328125,-0.99444580078125,0.049163818359375,0.0010986328125
1772454507752970800,5.270970703125,-0.996124267578125,0.0442047119140625,0.0035400390625
1772454507762988500,5.280988525390625,-0.9989471435546875,0.0424346923828125,0.0007171630859375
1772454507773006600,5.291006591796875,-1.002105712890625,0.0420684814453125,-0.002777099609375
1772454507783025000,5.30102490234375,-1.002685546875,0.0448455810546875,-0.010345458984375
1772454507793041700,5.311041748046875,-1.0010833740234375,0.0479888916015625,-0.0148773193359375
1772454507803059500,5.3210595703125,-0.9957733154296875,0.05224609375,-0.011993408203125
1772454507813077800,5.331077880859375,-0.9876708984375,0.0523681640625,-0.006500244140625
1772454507823095800,5.341095703125,-0.988067626953125,0.0506134033203125,0.00164794921875
1772454507833113600,5.351113525390625,-0.9918365478515625,0.04693603515625,0.0086212158203125
1772454507843130600,5.361130615234375,-0.99322509765625,0.044952392578125,0.009796142578125
1772454507853148700,5.371148681640625,-0.99346923828125,0.04693603515625,0.0035552978515625
1772454507863166500,5.38116650390625,-0.9918670654296875,0.0468597412109375,-0.0008544921875
1772454507873184800,5.391184814453125,-0.9885711669921875,0.043212890625,-0.0018310546875
1772454507883201500,5.401201416015625,-0.9857177734375,0.040130615234375,-0.0028533935546875
1772454507893219600,5.411219482421875,-0.988555908203125,0.0381317138671875,-0.007293701171875
1772454507903237600,5.421237548828125,-0.9933319091796875,0.0379486083984375,-0.014068603515625
1772454507913255700,5.431255615234375,-0.9964141845703125,0.03955078125,-0.019134521484375
1772454507923273500,5.4412734375,-0.9923553466796875,0.0426483154296875,-0.018585205078125
1772454507933290800,5.451290771484375,-0.9882354736328125,0.0467681884765625,-0.0136871337890625
1772454507943308500,5.46130859375,-0.9904937744140625,0.0490570068359375,-0.005279541015625
1772454507953326600,5.47132666015625,-0.9930572509765625,0.0499725341796875,0.0016937255859375
1772454507963344600,5.4813447265625,-0.9957122802734375,0.05377197265625,0.0019683837890625
1772454507973361700,5.491361572265625,-1.0035247802734375,0.0564117431640625,-0.0040283203125
1772454507983379700,5.501379638671875,-1.00909423828125,0.0570220947265625,-0.0108795166015625
1772454507993397800,5.511397705078125,-1.010467529296875,0.0518035888671875,-0.0202484130859375
1772454508003415600,5.52141552734375,-1.007293701171875,0.0492095947265625,-0.02362060546875
1772454508013433600,5.53143359375,-0.998443603515625,0.0482025146484375,-0.02008056640625
1772454508023450600,5.54145068359375,-0.9876861572265625,0.044677734375,-0.010223388671875
1772454508033468700,5.55146875,-0.97747802734375,0.042755126953125,0.0018310546875
1772454508043486700,5.56148681640625,-0.9725799560546875,0.0447998046875,0.0071258544921875
1772454508053504800,5.5715048828125,-0.9725799560546875,0.05047607421875,0.006011962890625
1772454508063521500,5.581521484375,-0.980010986328125,0.0557098388671875,0.00042724609375
1772454508073539800,5.591539794921875,-0.9905242919921875,0.0542755126953125,-0.009979248046875
1772454508083557600,5.6015576171875,-0.99859619140625,0.0460357666015625,-0.014007568359375
1772454508093575700,5.61157568359375,-1.0024871826171875,0.038970947265625,-0.01409912109375
1772454508103592700,5.6215927734375,-1.0034332275390625,0.0347137451171875,-0.016998291015625
1772454508113610800,5.63161083984375,-1.0009307861328125,0.0361785888671875,-0.0153961181640625
1772454508123628500,5.641628662109375,-1.001190185546875,0.04119873046875,-0.0110626220703125
1772454508133646800,5.651646728515625,-1.003997802734375,0.045257568359375,-0.002960205078125
1772454508143664600,5.66166455078125,-1.0096893310546875,0.0478515625,0.0043182373046875
1772454508153681700,5.671681640625,-1.0124969482421875,0.052215576171875,0.0047760009765625
1772454508163699700,5.68169970703125,-1.01092529296875,0.05133056640625,0.002655029296875
1772454508173717800,5.6917177734375,-1.00909423828125,0.048187255859375,-0.0017547607421875
1772454508183735600,5.701735595703125,-1.002899169921875,0.0438385009765625,-0.00311279296875
1772454508193752800,5.7117529296875,-0.9964599609375,0.0368804931640625,-0.0035858154296875
1772454508203770600,5.7217705078125,-0.992919921875,0.03192138671875,-0.0062713623046875
1772454508213788700,5.73178857421875,-0.9902496337890625,0.030548095703125,-0.0081939697265625
1772454508223806700,5.741806640625,-0.9867095947265625,0.0325164794921875,-0.0110321044921875
1772454508233824800,5.75182470703125,-0.9839935302734375,0.03448486328125,-0.0115966796875
1772454508243841500,5.761841552734375,-0.9799652099609375,0.0391387939453125,-0.0083160400390625
1772454508253859800,5.77185986328125,-0.9764404296875,0.045684814453125,-0.002227783203125
1772454508263877600,5.781877685546875,-0.9777374267578125,0.0503082275390625,-0.000885009765625
1772454508273895700,5.791895751953125,-0.987060546875,0.05206298828125,0.003387451171875
1772454508283912700,5.80191259765625,-0.9979705810546875,0.05340576171875,0.003448486328125
1772454508293930800,5.8119306640625,-1.0060272216796875,0.0543670654296875,-0.0025634765625
1772454508303948500,5.821948486328125,-1.0142059326171875,0.0554962158203125,-0.01275634765625
1772454508313966800,5.831966796875,-1.019622802734375,0.054229736328125,-0.0197906494140625
1772454508323984600,5.841984619140625,-1.0197296142578125,0.051177978515625,-0.0198822021484375
1772454508334001700,5.852001708984375,-1.0126953125,0.0484466552734375,-0.0122833251953125
1772454508344019700,5.862019775390625,-1.0027618408203125,0.04833984375,-0.008209228515625
1772454508354037800,5.872037841796875,-0.994598388671875,0.0525360107421875,-0.005889892578125
1772454508364055600,5.8820556640625,-0.9882354736328125,0.0558013916015625,-0.000457763671875
1772454508374072800,5.89207275390625,-0.988433837890625,0.0576934814453125,0.001495361328125
1772454508384090600,5.902090576171875,-0.989105224609375,0.0589599609375,-0.0010528564453125
1772454508394108700,5.912108642578125,-0.991241455078125,0.0562744140625,-0.0063934326171875
1772454508404126700,5.922126708984375,-0.99365234375,0.049530029296875,-0.0157318115234375
1772454508414144800,5.932144775390625,-0.991363525390625,0.03997802734375,-0.0233154296875
1772454508424161800,5.942161865234375,-0.9861297607421875,0.033172607421875,-0.0241241455078125
1772454508434179800,5.952179931640625,-0.979278564453125,0.0316925048828125,-0.02374267578125
1772454508444197600,5.96219775390625,-0.9742279052734375,0.0347137451171875,-0.0202789306640625
1772454508454215700,5.972215576171875,-0.971099853515625,0.038970947265625,-0.017852783203125
1772454508464232700,5.982232666015625,-0.97052001953125,0.0421905517578125,-0.0141754150390625
1772454508474250800,5.992250732421875,-0.9724273681640625,0.0482025146484375,-0.009857177734375
1772454508484268500,6.0022685546875,-0.9744873046875,0.0491943359375,-0.0099334716796875
1772454508494286800,6.012286865234375,-0.981475830078125,0.047332763671875,-0.011749267578125
1772454508504303600,6.0223037109375,-0.9940948486328125,0.0445098876953125,-0.0124664306640625
1772454508514321700,6.03232177734375,-1.00823974609375,0.042236328125,-0.0147552490234375
1772454508524339700,6.042339599609375,-1.02032470703125,0.0457305908203125,-0.0126190185546875
1772454508534357800,6.052357666015625,-1.0267486572265625,0.0504608154296875,-0.014373779296875
1772454508544375600,6.06237548828125,-1.0268707275390625,0.054473876953125,-0.01336669921875
1772454508554392600,6.072392578125,-1.021759033203125,0.054351806640625,-0.005859375
1772454508564410600,6.08241064453125,-1.0122528076171875,0.0536346435546875,0.0004425048828125
1772454508574428700,6.0924287109375,-1.00177001953125,0.0523223876953125,0.0067138671875
1772454508584446700,6.10244677734375,-0.99212646484375,0.04595947265625,0.0066070556640625
1772454508594463500,6.11246337890625,-0.9848175048828125,0.0413665771484375,0.0015716552734375
1772454508604481800,6.122481689453125,-0.980560302734375,0.03948974609375,-0.0053558349609375
1772454508614499600,6.13249951171875,-0.980499267578125,0.037994384765625,-0.016571044921875
1772454508624517600,6.142517578125,-0.9801025390625,0.0350341796875,-0.0223388671875
1772454508634535700,6.15253564453125,-0.9803314208984375,0.037689208984375,-0.0240020751953125
1772454508644552700,6.162552734375,-0.98236083984375,0.04205322265625,-0.0199432373046875
1772454508654570500,6.172570556640625,-0.9842681884765625,0.0471343994140625,-0.01068115234375
1772454508664588800,6.1825888671875,-0.9872589111328125,0.0514373779296875,-0.001800537109375
1772454508674606600,6.192606689453125,-0.99420166015625,0.0553741455078125,0.00439453125
1772454508684623600,6.20262353515625,-1.0031280517578125,0.0572967529296875,0.004119873046875
1772454508694642200,6.21264208984375,-1.007965087890625,0.05816650390625,0.000946044921875
1772454508704660000,6.222659912109375,-1.0099029541015625,0.058258056640625,-0.004791259765625
1772454508714678000,6.232677978515625,-1.010986328125,0.0548858642578125,-0.0149993896484375
1772454508724695000,6.242695068359375,-1.009490966796875,0.0511322021484375,-0.0167388916015625
1772454508734713000,6.252713134765625,-1.001708984375,0.0469970703125,-0.0205078125
1772454508744731000,6.26273095703125,-0.993438720703125,0.040863037109375,-0.0212554931640625
1772454508754749200,6.272749267578125,-0.98455810546875,0.0386962890625,-0.022430419921875
1772454508764767200,6.282767333984375,-0.9744110107421875,0.0380096435546875,-0.021636962890625
1772454508774784000,6.292783935546875,-0.969512939453125,0.0360260009765625,-0.0190277099609375
1772454508784802000,6.302802001953125,-0.9662017822265625,0.0377044677734375,-0.0164794921875
1772454508794820000,6.312820068359375,-0.968963623046875,0.039794921875,-0.0119476318359375
1772454508804838000,6.322837890625,-0.9741668701171875,0.043304443359375,-0.010345458984375
1772454508814855200,6.332855224609375,-0.9841461181640625,0.047027587890625,-0.0117034912109375
1772454508824873000,6.342873046875,-0.9915618896484375,0.0514068603515625,-0.0141754150390625
1772454508834891000,6.35289111328125,-0.99957275390625,0.0576019287109375,-0.0154876708984375
1772454508844909000,6.362908935546875,-1.0086822509765625,0.0614776611328125,-0.0143280029296875
1772454508854927000,6.372927001953125,-1.01690673828125,0.0617218017578125,-0.0146636962890625
1772454508864943900,6.38294384765625,-1.028717041015625,0.06195068359375,-0.013671875
1772454508874962200,6.392962158203125,-1.0399932861328125,0.059906005859375,-0.0194091796875
1772454508884980000,6.40297998046875,-1.037353515625,0.060516357421875,-0.0158233642578125
1772454508894998000,6.412998046875,-1.02386474609375,0.0583343505859375,-0.0158538818359375
1772454508905015000,6.42301513671875,-1.003875732421875,0.053253173828125,-0.013427734375
1772454508915033000,6.433033203125,-0.9818572998046875,0.050323486328125,-0.00628662109375
1772454508925051000,6.44305078125,-0.9624176025390625,0.0429840087890625,-0.00439453125
1772454508935069200,6.453069091796875,-0.9510345458984375,0.0369873046875,-0.0104827880859375
1772454508945087000,6.4630869140625,-0.946197509765625,0.0355377197265625,-0.01873779296875
1772454508955104000,6.47310400390625,-0.9493560791015625,0.03729248046875,-0.021942138671875
1772454508965122000,6.4831220703125,-0.9576263427734375,0.0400543212890625,-0.0189666748046875
1772454508975140000,6.49314013671875,-0.9734649658203125,0.0421142578125,-0.0207977294921875
1772454508985158000,6.503157958984375,-0.9877471923828125,0.04254150390625,-0.0196380615234375
1772454508995175200,6.513175048828125,-1.0004119873046875,0.0417633056640625,-0.019622802734375
1772454509005193000,6.52319287109375,-1.00872802734375,0.0426177978515625,-0.016204833984375
1772454509015211000,6.5332109375,-1.013031005859375,0.044677734375,-0.013824462890625
1772454509025229000,6.54322900390625,-1.0166015625,0.049163818359375,-0.0111846923828125
1772454509035246000,6.55324609375,-1.02032470703125,0.052093505859375,-0.0040435791015625
1772454509045264100,6.56326416015625,-1.0274658203125,0.0560150146484375,0.0036773681640625
1772454509055282200,6.5732822265625,-1.0432586669921875,0.0607452392578125,0.0019073486328125
1772454509065300000,6.583300048828125,-1.051177978515625,0.0657501220703125,0.0000457763671875
1772454509075318000,6.593318115234375,-1.0504608154296875,0.070159912109375,-0.00189208984375
1772454509085335000,6.6033349609375,-1.043975830078125,0.0731964111328125,-0.00408935546875
1772454509095353000,6.61335302734375,-1.0278472900390625,0.0729217529296875,0.00048828125
1772454509105371000,6.623370849609375,-1.01019287109375,0.0619659423828125,0.009765625
1772454509115389200,6.63338916015625,-0.991790771484375,0.0461883544921875,0.0121612548828125
1772454509125406000,6.643406005859375,-0.9739532470703125,0.037078857421875,0.0068359375
1772454509135424300,6.65342431640625,-0.9570770263671875,0.03118896484375,-0.0010528564453125
1772454509145442000,6.663442138671875,-0.9447784423828125,0.0280303955078125,-0.00872802734375
1772454509155460000,6.673460205078125,-0.9434967041015625,0.025360107421875,-0.016326904296875
1772454509165478000,6.683477783203125,-0.94586181640625,0.0213623046875,-0.0216217041015625
1772454509175495200,6.6934951171875,-0.95086669921875,0.0211639404296875,-0.0263824462890625
1772454509185513000,6.703512939453125,-0.9605712890625,0.023529052734375,-0.0328521728515625
1772454509195531000,6.713531005859375,-0.983154296875,0.0298309326171875,-0.0331573486328125
1772454509205549000,6.723549072265625,-1.010009765625,0.038116455078125,-0.02642822265625
1772454509215566000,6.733566162109375,-1.028961181640625,0.0463104248046875,-0.021514892578125
1772454509225584000,6.743584228515625,-1.042510986328125,0.054656982421875,-0.0250091552734375
1772454509235602200,6.753602294921875,-1.0432891845703125,0.060821533203125,-0.02508544921875
1772454509245620000,6.763619873046875,-1.0360260009765625,0.06085205078125,-0.0271453857421875
1772454509255637200,6.77363720703125,-1.021331787109375,0.0502471923828125,-0.026702880859375
1772454509265655000,6.783655029296875,-1.0018157958984375,0.039337158203125,-0.026641845703125
1772454509275673000,6.793673095703125,-0.985382080078125,0.030975341796875,-0.0263671875
1772454509285691100,6.803691162109375,-0.9698638916015625,0.0292510986328125,-0.0219268798828125
1772454509295709200,6.813709228515625,-0.9597015380859375,0.034576416015625,-0.0169525146484375
1772454509305726000,6.823725830078125,-0.95538330078125,0.0421142578125,-0.0117645263671875
1772454509315744300,6.833744140625,-0.9611358642578125,0.046051025390625,-0.007965087890625
1772454509325762000,6.843761962890625,-0.970489501953125,0.0475921630859375,-0.008331298828125
1772454509335780000,6.853780029296875,-0.9797210693359375,0.0500640869140625,-0.012542724609375
1772454509345797000,6.863797119140625,-0.99072265625,0.0497283935546875,-0.011505126953125
1772454509355815200,6.873815185546875,-1.005523681640625,0.05023193359375,-0.00994873046875
1772454509365833000,6.8838330078125,-1.0200347900390625,0.0500946044921875,-0.010101318359375
1772454509375851300,6.893851318359375,-1.0282135009765625,0.0522308349609375,-0.009613037109375
1772454509385869000,6.903869140625,-1.03790283203125,0.056854248046875,-0.0141754150390625
1772454509395885800,6.9138857421875,-1.0382232666015625,0.059661865234375,-0.015045166015625
1772454509405904100,6.923904052734375,-1.031982421875,0.057159423828125,-0.010833740234375
1772454509415922200,6.933922119140625,-1.0200042724609375,0.05108642578125,-0.0020294189453125
1772454509425940000,6.94393994140625,-1.00286865234375,0.04901123046875,-0.0025787353515625
1772454509435957000,6.95395703125,-0.9818267822265625,0.0480804443359375,-0.008819580078125
1772454509445975000,6.96397509765625,-0.962890625,0.0428314208984375,-0.011993408203125
1772454509455992800,6.973992919921875,-0.9488677978515625,0.0350189208984375,-0.01348876953125
1772454509466011100,6.98401123046875,-0.93701171875,0.0303192138671875,-0.010772705078125
1772454509476029200,6.994029296875,-0.9293060302734375,0.02325439453125,-0.0062713623046875
1772454509486046000,7.0040458984375,-0.9336700439453125,0.0193328857421875,-0.0063018798828125
1772454509496064000,7.01406396484375,-0.9478759765625,0.023468017578125,-0.00946044921875
1772454509506082000,7.02408203125,-0.9614410400390625,0.03369140625,-0.012847900390625
1772454509516100000,7.03410009765625,-0.9853973388671875,0.046875,-0.0079193115234375
1772454509526117000,7.0441171875,-1.0194854736328125,0.0528411865234375,0.001495361328125
1772454509536135000,7.054135009765625,-1.0457916259765625,0.0573272705078125,0.00750732421875
1772454509546153000,7.064153076171875,-1.0573272705078125,0.0581512451171875,0.0039520263671875
1772454509556171000,7.0741708984375,-1.057037353515625,0.05694580078125,-0.00885009765625
1772454509566188000,7.08418798828125,-1.0436553955078125,0.051727294921875,-0.0163116455078125
1772454509576206000,7.0942060546875,-1.0216827392578125,0.043182373046875,-0.0139923095703125
1772454509586224000,7.10422412109375,-1.0029144287109375,0.0344696044921875,-0.01287841796875
1772454509596242000,7.114241943359375,-0.9832611083984375,0.0297088623046875,-0.0094757080078125
1772454509606260000,7.124260009765625,-0.9717559814453125,0.0273590087890625,-0.009979248046875
1772454509616277000,7.134277099609375,-0.96771240234375,0.0265350341796875,-0.0113983154296875
1772454509626295000,7.144294921875,-0.97015380859375,0.0284576416015625,-0.0125885009765625
1772454509636313000,7.15431298828125,-0.974639892578125,0.0351104736328125,-0.0099029541015625
1772454509646331100,7.1643310546875,-0.9861297607421875,0.042510986328125,-0.0072021484375
1772454509656348000,7.174347900390625,-1.006195068359375,0.047515869140625,-0.0036468505859375
1772454509666366200,7.1843662109375,-1.021514892578125,0.0491943359375,-0.001251220703125
1772454509676384000,7.194384033203125,-1.0301513671875,0.05218505859375,-0.0067291259765625
1772454509686402000,7.204402099609375,-1.0284423828125,0.052947998046875,-0.016021728515625
1772454509696420000,7.214420166015625,-1.0206298828125,0.0516510009765625,-0.021270751953125
1772454509706437000,7.22443701171875,-1.010101318359375,0.0492706298828125,-0.0188140869140625
1772454509716455200,7.234455078125,-0.990997314453125,0.04473876953125,-0.014617919921875
1772454509726473200,7.24447314453125,-0.97119140625,0.03759765625,-0.0120391845703125
1772454509736491300,7.2544912109375,-0.95751953125,0.03204345703125,-0.0081024169921875
1772454509746508000,7.264508056640625,-0.9513702392578125,0.0263824462890625,-0.005401611328125
1772454509756526300,7.2745263671875,-0.9503021240234375,0.0242919921875,-0.008514404296875
1772454509766544100,7.284544189453125,-0.9556427001953125,0.0237274169921875,-0.01629638671875
1772454509776562200,7.294562255859375,-0.963836669921875,0.026824951171875,-0.02459716796875
1772454509786579200,7.3045791015625,-0.9672393798828125,0.0280609130859375,-0.024383544921875
1772454509796597200,7.31459716796875,-0.97442626953125,0.0323944091796875,-0.02264404296875
1772454509806615000,7.324614990234375,-0.9967803955078125,0.038360595703125,-0.017242431640625
1772454509816633300,7.33463330078125,-1.01849365234375,0.048126220703125,-0.010101318359375
1772454509826651100,7.344651123046875,-1.0292816162109375,0.0576324462890625,-0.0096282958984375
1772454509836668200,7.354668212890625,-1.0381317138671875,0.063812255859375,-0.0102691650390625
1772454509846686200,7.364686279296875,-1.04205322265625,0.0628509521484375,-0.009735107421875
1772454509856704300,7.374704345703125,-1.0392608642578125,0.055755615234375,-0.006683349609375
1772454509866722000,7.38472216796875,-1.02545166015625,0.0464935302734375,-0.0049285888671875
1772454509876739300,7.3947392578125,-1.0069427490234375,0.03741455078125,-0.00555419921875
1772454509886757000,7.404757080078125,-0.988250732421875,0.0330657958984375,-0.003387451171875
1772454509896775200,7.414775146484375,-0.9714813232421875,0.0317840576171875,-0.00482177734375
1772454509906793200,7.424793212890625,-0.960784912109375,0.0340118408203125,-0.0000457763671875
1772454509916810200,7.434810302734375,-0.9579620361328125,0.039306640625,0.0006561279296875
1772454509926828000,7.444828125,-0.9603729248046875,0.0408477783203125,0.00201416015625
1772454509936846300,7.454846435546875,-0.9671173095703125,0.0425872802734375,-0.001251220703125
1772454509946864000,7.464864013671875,-0.9796600341796875,0.042877197265625,-0.0068511962890625
1772454509956882200,7.474882080078125,-0.9932098388671875,0.0432586669921875,-0.014373779296875
1772454509966899200,7.484899169921875,-1.0029449462890625,0.0421600341796875,-0.018280029296875
1772454509976917200,7.494917236328125,-1.0080413818359375,0.042449951171875,-0.01910400390625
1772454509986935000,7.50493505859375,-1.0189666748046875,0.0449371337890625,-0.018218994140625
1772454509996953300,7.514953369140625,-1.027130126953125,0.0428009033203125,-0.01800537109375
1772454510006970000,7.52497021484375,-1.0272064208984375,0.0439300537109375,-0.014129638671875
1772454510016988200,7.53498828125,-1.02435302734375,0.046966552734375,-0.013763427734375
1772454510027006200,7.545006103515625,-1.016326904296875,0.0470733642578125,-0.0160675048828125
1772454510037024300,7.555024169921875,-1.002960205078125,0.043914794921875,-0.01446533203125
1772454510047042000,7.5650419921875,-0.98846435546875,0.0415191650390625,-0.0083160400390625
1772454510057059300,7.575059326171875,-0.9742584228515625,0.0399322509765625,-0.0047607421875
1772454510067077000,7.5850771484375,-0.964111328125,0.03741455078125,-0.00244140625
1772454510077095200,7.59509521484375,-0.960296630859375,0.0370635986328125,-0.0076141357421875
1772454510087113200,7.60511328125,-0.9621124267578125,0.0347900390625,-0.011016845703125
1772454510097130200,7.615130126953125,-0.9733428955078125,0.03033447265625,-0.011993408203125
1772454510107148300,7.625148193359375,-0.985565185546875,0.0266571044921875,-0.018402099609375
1772454510117166300,7.635166259765625,-0.999847412109375,0.028717041015625,-0.0192718505859375
1772454510127184100,7.64518408203125,-1.0109100341796875,0.033355712890625,-0.0206451416015625
1772454510137201200,7.655201171875,-1.018035888671875,0.04205322265625,-0.019744873046875
1772454510147219200,7.66521923828125,-1.0251922607421875,0.046142578125,-0.011138916015625
1772454510157237200,7.6752373046875,-1.024444580078125,0.054290771484375,-0.0052947998046875
1772454510167255000,7.685255126953125,-1.024261474609375,0.0619964599609375,-0.00531005859375
1772454510177273300,7.6952734375,-1.0204925537109375,0.062347412109375,-0.0023193359375
1772454510187290000,7.7052900390625,-1.0169525146484375,0.053802490234375,0.0020904541015625
1772454510197308200,7.71530810546875,-1.0148162841796875,0.0459136962890625,-0.0019378662109375
1772454510207326200,7.725326171875,-1.008758544921875,0.037689208984375,-0.0122222900390625
1772454510217344300,7.73534423828125,-0.9998321533203125,0.0327606201171875,-0.0235443115234375
1772454510227361300,7.745361328125,-0.987030029296875,0.030487060546875,-0.0291595458984375
1772454510237379000,7.755379150390625,-0.971038818359375,0.030853271484375,-0.0297088623046875
1772454510247397000,7.765397216796875,-0.95611572265625,0.0326385498046875,-0.0220489501953125
1772454510257415200,7.775415283203125,-0.9460296630859375,0.035797119140625,-0.01226806640625
1772454510267433200,7.78543310546875,-0.9407196044921875,0.040374755859375,-0.002960205078125
1772454510277450000,7.795449951171875,-0.946990966796875,0.0455474853515625,-0.000946044921875
1772454510287468300,7.80546826171875,-0.95953369140625,0.05035400390625,-0.0035858154296875
1772454510297486000,7.815486083984375,-0.9833984375,0.0549774169921875,-0.0086517333984375
1772454510307504000,7.825504150390625,-1.00970458984375,0.0540771484375,-0.0120391845703125
1772454510317521200,7.835521240234375,-1.0303955078125,0.0545654296875,-0.017578125
1772454510327539200,7.845539306640625,-1.042510986328125,0.0533905029296875,-0.0216522216796875
1772454510337557000,7.855556884765625,-1.044952392578125,0.051239013671875,-0.0211639404296875
1772454510347575300,7.8655751953125,-1.0343017578125,0.048858642578125,-0.0174713134765625
1772454510357592000,7.875592041015625,-1.0152130126953125,0.0484619140625,-0.0110626220703125
1772454510367610000,7.885610107421875,-0.998687744140625,0.0468292236328125,-0.0045013427734375
1772454510377628200,7.895628173828125,-0.984375,0.0420379638671875,-0.003753662109375
1772454510387646200,7.905646240234375,-0.9754791259765625,0.03814697265625,-0.00439453125
1772454510397664000,7.9156640625,-0.970550537109375,0.03643798828125,-0.0080413818359375
1772454510407681300,7.925681396484375,-0.972869873046875,0.03338623046875,-0.013946533203125
1772454510417699000,7.935698974609375,-0.9766082763671875,0.03106689453125,-0.0137176513671875
1772454510427717000,7.945717041015625,-0.98193359375,0.0347442626953125,-0.0129547119140625
1772454510437735200,7.955735107421875,-0.98919677734375,0.037841796875,-0.0114898681640625
1772454510447752200,7.965752197265625,-1.0008087158203125,0.041534423828125,-0.0116729736328125
1772454510457770000,7.97577001953125,-1.0115966796875,0.0450897216796875,-0.013641357421875
1772454510467788300,7.985788330078125,-1.020233154296875,0.0507049560546875,-0.0135040283203125
1772454510477806000,7.99580615234375,-1.023040771484375,0.051513671875,-0.0113983154296875
1772454510487823400,8.0058232421875,-1.016876220703125,0.047576904296875,-0.0118865966796875
1772454510497841200,8.015841064453125,-1.0085296630859375,0.0441436767578125,-0.0127410888671875
1772454510507859200,8.025859130859375,-1.0047760009765625,0.0395050048828125,-0.0146636962890625
1772454510517877000,8.035876953125,-0.998687744140625,0.0338897705078125,-0.0113372802734375
1772454510527895300,8.045895263671875,-0.988616943359375,0.0319976806640625,-0.0081939697265625
1772454510537912000,8.055912109375,-0.98333740234375,0.032440185546875,-0.008270263671875
1772454510547930400,8.065930419921875,-0.9771270751953125,0.0332794189453125,-0.0089569091796875
1772454510557948200,8.0759482421875,-0.9756011962890625,0.034027099609375,-0.0065155029296875
1772454510567966200,8.08596630859375,-0.979949951171875,0.0336151123046875,-0.0076446533203125
1772454510577983200,8.095983154296874,-0.985107421875,0.0332183837890625,-0.0104522705078125
1772454510588001300,8.106001220703124,-0.9933319091796875,0.0357666015625,-0.0167083740234375
1772454510598019000,8.11601904296875,-1.001129150390625,0.036529541015625,-0.0157623291015625
1772454510608037000,8.126037109375,-1.0014495849609375,0.0395660400390625,-0.0156097412109375
1772454510618054100,8.13605419921875,-0.9980621337890625,0.04486083984375,-0.0121917724609375
1772454510628072200,8.146072265625,-0.99456787109375,0.0522918701171875,-0.00543212890625
1772454510638090200,8.15609033203125,-0.995208740234375,0.0566253662109375,0.0014190673828125
1772454510648108300,8.1661083984375,-1.0006561279296875,0.0551605224609375,0.00787353515625
1772454510658126000,8.1761259765625,-1.002655029296875,0.0546722412109375,0.0084381103515625
1772454510668143400,8.186143310546875,-1.0037384033203125,0.0537261962890625,0.0024261474609375
1772454510678161200,8.1961611328125,-0.9993438720703125,0.051513671875,-0.0034332275390625
1772454510688179200,8.20617919921875,-0.9941864013671875,0.048675537109375,-0.006256103515625
1772454510698196500,8.216196533203124,-0.9875946044921875,0.045562744140625,-0.005126953125
1772454510708213200,8.226213134765626,-0.985565185546875,0.042938232421875,-0.0051422119140625
1772454510718231600,8.2362314453125,-0.9846343994140625,0.0410614013671875,-0.00732421875
1772454510728249300,8.246249267578126,-0.984375,0.042083740234375,-0.011962890625
1772454510738267400,8.256267333984376,-0.9838714599609375,0.0416259765625,-0.017669677734375
1772454510748285400,8.266285400390625,-0.9885406494140625,0.0390777587890625,-0.0208282470703125
1772454510758302500,8.276302490234375,-0.98809814453125,0.0374603271484375,-0.01898193359375
1772454510768320300,8.2863203125,-0.987701416015625,0.038055419921875,-0.0205230712890625
1772454510778338600,8.296338623046875,-0.983551025390625,0.04156494140625,-0.020233154296875
1772454510788356600,8.306356689453125,-0.9825439453125,0.039398193359375,-0.0160369873046875
1772454510798373400,8.316373291015625,-0.9884490966796875,0.0421905517578125,-0.011199951171875
1772454510808391400,8.326391357421874,-0.9999847412109375,0.045684814453125,-0.009033203125
1772454510818409500,8.336409423828124,-1.009429931640625,0.050048828125,-0.0052490234375
1772454510828427300,8.34642724609375,-1.015380859375,0.05218505859375,-0.0062255859375
1772454510838444500,8.356444580078126,-1.01800537109375,0.0531005859375,-0.0112457275390625
1772454510848462300,8.36646240234375,-1.01580810546875,0.0487823486328125,-0.011749267578125
1772454510858480400,8.37648046875,-1.010284423828125,0.0386199951171875,-0.00958251953125
1772454510868498400,8.38649853515625,-1.0013885498046875,0.0329437255859375,-0.011322021484375
1772454510878516500,8.3965166015625,-0.9937744140625,0.0304107666015625,-0.0093841552734375
1772454510888533200,8.406533203125,-0.9841461181640625,0.0297393798828125,-0.01318359375
1772454510898551600,8.416551513671875,-0.977996826171875,0.026641845703125,-0.01641845703125
1772454510908569300,8.4265693359375,-0.97601318359375,0.025360107421875,-0.0171661376953125
1772454510918587400,8.43658740234375,-0.9807281494140625,0.0266876220703125,-0.0133819580078125
1772454510928604400,8.4466044921875,-0.9865264892578125,0.0322113037109375,-0.0118560791015625
1772454510938622500,8.45662255859375,-0.9969024658203125,0.03729248046875,-0.015472412109375
1772454510948640300,8.46664013671875,-1.011383056640625,0.0416107177734375,-0.0152587890625
1772454510958658600,8.476658447265624,-1.0191802978515625,0.048248291015625,-0.0048675537109375
1772454510968675300,8.48667529296875,-1.0223388671875,0.0502471923828125,0.0005340576171875
1772454510978693400,8.496693359375,-1.0215301513671875,0.0510711669921875,-0.001190185546875
1772454510988711400,8.50671142578125,-1.0150604248046875,0.0520172119140625,-0.00604248046875
1772454510998729500,8.5167294921875,-1.000152587890625,0.049407958984375,-0.0100555419921875
1772454511008747300,8.526747314453125,-0.9848785400390625,0.045013427734375,-0.014739990234375
1772454511018764500,8.5367646484375,-0.971527099609375,0.038360595703125,-0.0126953125
1772454511028782300,8.5467822265625,-0.9622650146484375,0.0311737060546875,-0.0045166015625
1772454511038800400,8.55680029296875,-0.9622802734375,0.0284271240234375,-0.0019073486328125
1772454511048818400,8.566818359375,-0.9681854248046875,0.0270843505859375,-0.0047760009765625
1772454511058835500,8.57683544921875,-0.978546142578125,0.030059814453125,-0.0138702392578125
1772454511068853500,8.586853515625,-0.9899139404296875,0.0336761474609375,-0.0193023681640625
1772454511078871600,8.59687158203125,-0.9986419677734375,0.039886474609375,-0.019256591796875
1772454511088889300,8.606889404296876,-1.0041046142578125,0.045928955078125,-0.011962890625
1772454511098906600,8.61690673828125,-1.00897216796875,0.0496063232421875,-0.007568359375
1772454511108924400,8.62692431640625,-1.01165771484375,0.057098388671875,-0.004058837890625
1772454511118942500,8.6369423828125,-1.013458251953125,0.0605926513671875,-0.0003509521484375
1772454511128960300,8.646960205078125,-1.0085906982421875,0.05859375,0.0009918212890625
1772454511138978600,8.656978515625,-1.0006561279296875,0.0544891357421875,-0.0011138916015625
1772454511148995300,8.666995361328125,-0.9955596923828125,0.0470428466796875,-0.0082244873046875
1772454511159013600,8.677013671875,-0.988983154296875,0.04046630859375,-0.012237548828125
1772454511169031400,8.687031494140625,-0.9851226806640625,0.036102294921875,-0.01373291015625
1772454511179049500,8.697049560546875,-0.98101806640625,0.0364532470703125,-0.0172119140625
1772454511189066500,8.70706640625,-0.978729248046875,0.037353515625,-0.0176849365234375
1772454511199084500,8.71708447265625,-0.9803009033203125,0.036468505859375,-0.0123443603515625
1772454511209102300,8.727102294921876,-0.9877166748046875,0.0384979248046875,-0.0088653564453125
1772454511219120400,8.737120361328126,-0.9884490966796875,0.0394744873046875,-0.008575439453125
1772454511229138400,8.747138427734376,-0.9917449951171875,0.040191650390625,-0.010009765625
1772454511239155500,8.757155517578125,-0.993316650390625,0.0421600341796875,-0.006988525390625
1772454511249173500,8.767173583984375,-0.9949188232421875,0.0445556640625,-0.0044403076171875
1772454511259191600,8.777191650390625,-0.9954376220703125,0.0446319580078125,-0.001922607421875
1772454511269209300,8.787209228515625,-0.9956512451171875,0.0423583984375,-0.00201416015625
1772454511279226600,8.7972265625,-0.9987335205078125,0.039276123046875,-0.0059051513671875
1772454511289244400,8.807244384765625,-1.001129150390625,0.0379791259765625,-0.0087127685546875
1772454511299262500,8.817262451171874,-1.0019073486328125,0.035308837890625,-0.01104736328125
1772454511309280500,8.827280517578124,-1.002838134765625,0.0324554443359375,-0.0110626220703125
1772454511319297300,8.83729736328125,-1.004730224609375,0.0303955078125,-0.0098114013671875
1772454511329315300,8.8473154296875,-1.008941650390625,0.02911376953125,-0.006622314453125
1772454511339333600,8.857333740234376,-1.014678955078125,0.0300750732421875,-0.01025390625
1772454511349351400,8.867351318359376,-1.012451171875,0.03399658203125,-0.0137176513671875
1772454511359368400,8.877368408203125,-1.0051116943359375,0.0362396240234375,-0.015625
1772454511369386500,8.887386474609375,-0.9967041015625,0.03717041015625,-0.010955810546875
1772454511379404500,8.897404541015625,-0.9931182861328125,0.0370025634765625,-0.004302978515625
1772454511389422300,8.90742236328125,-0.9918670654296875,0.0350799560546875,-0.002349853515625
1772454511399440600,8.917440673828125,-0.991851806640625,0.0336151123046875,-0.0054779052734375
1772454511409457400,8.92745751953125,-0.9904937744140625,0.0358734130859375,-0.0087738037109375
1772454511419475200,8.93747509765625,-0.990997314453125,0.0365142822265625,-0.008544921875
1772454511429493500,8.947493408203124,-0.98956298828125,0.03955078125,-0.009307861328125
1772454511439511600,8.957511474609374,-0.9911956787109375,0.040191650390625,-0.0098876953125
1772454511449528600,8.967528564453126,-0.992401123046875,0.04156494140625,-0.0089569091796875
1772454511459546400,8.97754638671875,-0.99676513671875,0.0430755615234375,-0.0092926025390625
1772454511469564400,8.987564453125,-1.00537109375,0.041656494140625,-0.012420654296875
1772454511479582500,8.99758251953125,-1.008209228515625,0.0396575927734375,-0.0130462646484375
1772454511489600500,9.0076005859375,-1.00616455078125,0.0417327880859375,-0.01165771484375
1772454511499617300,9.0176171875,-1.0027923583984375,0.04559326171875,-0.00994873046875
1772454511509635300,9.02763525390625,-0.9994964599609375,0.048736572265625,-0.00958251953125
1772454511519653400,9.0376533203125,-0.9965362548828125,0.047332763671875,-0.010894775390625
1772454511529671400,9.04767138671875,-0.9908294677734375,0.0460662841796875,-0.00897216796875
1772454511539688400,9.0576884765625,-0.9874267578125,0.04388427734375,-0.0068817138671875
1772454511549706500,9.06770654296875,-0.982666015625,0.040435791015625,-0.0068206787109375
1772454511559724300,9.077724365234374,-0.98138427734375,0.039825439453125,-0.0108642578125
1772454511569742300,9.087742431640624,-0.9821624755859375,0.036712646484375,-0.0153961181640625
1772454511579759400,9.09775927734375,-0.9832916259765625,0.03662109375,-0.01715087890625
1772454511589777400,9.10777734375,-0.9847412109375,0.03558349609375,-0.0166778564453125
1772454511599795500,9.11779541015625,-0.9897613525390625,0.0364532470703125,-0.0166168212890625
1772454511609813500,9.1278134765625,-0.99273681640625,0.040252685546875,-0.0100250244140625
1772454511619831300,9.137831298828125,-0.9976654052734375,0.045074462890625,-0.00531005859375
1772454511629848600,9.1478486328125,-0.998931884765625,0.04730224609375,-0.0021514892578125
1772454511639866400,9.157866455078125,-0.9993438720703125,0.04998779296875,-0.0015869140625
1772454511649884400,9.167884521484375,-0.99822998046875,0.049896240234375,-0.003448486328125
1772454511659902200,9.177902099609375,-1.000457763671875,0.0447235107421875,-0.00439453125
1772454511669919500,9.18791943359375,-1.00341796875,0.040557861328125,-0.00543212890625
1772454511679937300,9.197937255859374,-1.0029144287109375,0.037811279296875,-0.0114898681640625
1772454511689955600,9.20795556640625,-1.0016326904296875,0.036956787109375,-0.017669677734375
1772454511699974000,9.217973876953126,-1.00128173828125,0.035980224609375,-0.0212554931640625
1772454511709990700,9.22799072265625,-1.0013580322265625,0.03778076171875,-0.0121917724609375
1772454511720009000,9.238009033203125,-0.99591064453125,0.036468505859375,-0.0015869140625
1772454511730026800,9.24802685546875,-0.9943389892578125,0.0374908447265625,-0.0030364990234375
1772454511740044800,9.258044921875,-0.994720458984375,0.0352783203125,-0.021240234375
1772454511750062600,9.2680625,-0.9923858642578125,0.033294677734375,-0.0233001708984375
1772454511760080000,9.278079833984375,-0.9879302978515625,0.031585693359375,-0.0132598876953125
1772454511770097700,9.28809765625,-0.9879302978515625,0.0301055908203125,-0.0049591064453125
1772454511780116000,9.298115966796875,-0.9792633056640625,0.0329437255859375,-0.00518798828125
1772454511790133800,9.3081337890625,-0.96917724609375,0.037445068359375,0.00140380859375
1772454511800150800,9.31815087890625,-0.9703216552734375,0.04876708984375,0.011932373046875
1772454511810168800,9.3281689453125,-0.97918701171875,0.0514068603515625,0.01605224609375
1772454511820187000,9.338186767578126,-0.9945220947265625,0.062835693359375,0.01837158203125
1772454511830204700,9.34820458984375,-1.023284912109375,0.07122802734375,0.0091400146484375
1772454511840222000,9.358221923828125,-1.0498504638671875,0.0771026611328125,0.0035400390625
1772454511850239700,9.36823974609375,-1.062225341796875,0.077178955078125,0.00640869140625
1772454511860257800,9.3782578125,-1.063140869140625,0.07684326171875,0.0057525634765625
1772454511870275800,9.38827587890625,-1.0467376708984375,0.0771026611328125,-0.0012054443359375
1772454511880294000,9.3982939453125,-1.0244598388671875,0.0764923095703125,-0.0122833251953125
1772454511890310700,9.408310546875,-0.9978790283203125,0.0699920654296875,-0.019439697265625
1772454511900329000,9.418328857421875,-0.9739990234375,0.0608978271484375,-0.0150909423828125
1772454511910346800,9.4283466796875,-0.95660400390625,0.0496368408203125,-0.0032806396484375
1772454511920364800,9.43836474609375,-0.949981689453125,0.0388641357421875,0.00421142578125
1772454511930381800,9.4483818359375,-0.941741943359375,0.03717041015625,0.0093841552734375
1772454511940399900,9.45839990234375,-0.9412078857421875,0.0400390625,0.0057830810546875
1772454511950417700,9.468417724609376,-0.9428863525390625,0.03863525390625,-0.0051422119140625
1772454511960436000,9.47843603515625,-0.951934814453125,0.0357208251953125,-0.013946533203125
1772454511970452700,9.48845263671875,-0.96551513671875,0.0257110595703125,-0.0169677734375
1772454511980470800,9.498470703125,-0.9760589599609375,0.0233612060546875,-0.0147247314453125
1772454511990488800,9.50848876953125,-0.9827728271484375,0.0316619873046875,-0.012603759765625
1772454512000507000,9.5185068359375,-0.9856109619140625,0.0427093505859375,-0.0063323974609375
1772454512010524700,9.528524658203125,-0.987030029296875,0.0561370849609375,0.0062255859375
1772454512020542000,9.5385419921875,-0.9923095703125,0.068511962890625,0.0190887451171875
1772454512030559700,9.548559814453125,-1.0076141357421875,0.078155517578125,0.025909423828125
1772454512040577800,9.558577880859374,-1.0245819091796875,0.0806732177734375,0.024688720703125
1772454512050595800,9.568595947265624,-1.0424957275390625,0.0765380859375,0.01904296875
1772454512060612900,9.57861279296875,-1.051300048828125,0.076324462890625,0.000457763671875
1772454512070631000,9.588630859375,-1.0518951416015625,0.07513427734375,-0.01611328125
1772454512080649000,9.59864892578125,-1.0429229736328125,0.0735015869140625,-0.0168304443359375
1772454512090666800,9.608666748046875,-1.0244903564453125,0.0676727294921875,-0.0081939697265625
1772454512100683800,9.618683837890625,-1.0012664794921875,0.0581817626953125,0.005615234375
1772454512110701800,9.628701904296875,-0.9771575927734375,0.0503082275390625,0.01776123046875
1772454512120720000,9.638719970703125,-0.95721435546875,0.050384521484375,0.0241851806640625
1772454512130737700,9.648737548828125,-0.9504547119140625,0.04803466796875,0.021209716796875
1772454512140756000,9.658755859375,-0.952545166015625,0.0450286865234375,0.019378662109375
1772454512150772700,9.668772705078124,-0.962493896484375,0.0461578369140625,0.0177154541015625
1772454512160791000,9.678791015625,-0.97943115234375,0.0488128662109375,0.014404296875
1772454512170808800,9.688808837890624,-0.9950408935546875,0.0482025146484375,0.0055389404296875
1772454512180827000,9.698826904296874,-1.00299072265625,0.052764892578125,0.001739501953125
1772454512190844000,9.708843994140626,-1.0017242431640625,0.055999755859375,-0.001007080078125
1772454512200861700,9.71886181640625,-0.990570068359375,0.0569915771484375,0.0013275146484375
1772454512210879700,9.728879638671875,-0.9817962646484375,0.054168701171875,0.00897216796875
1772454512220897800,9.738897705078125,-0.98028564453125,0.0532379150390625,0.0227203369140625
1772454512230914800,9.748914794921875,-0.9814910888671875,0.05413818359375,0.0272064208984375
1772454512240932600,9.7589326171875,-0.98004150390625,0.0648040771484375,0.0215301513671875
1772454512250951000,9.768950927734375,-0.9815826416015625,0.076751708984375,0.01251220703125
1772454512260969000,9.778968994140625,-0.98260498046875,0.0770416259765625,0.0128021240234375
1772454512270986800,9.78898681640625,-0.9821014404296875,0.07470703125,0.0159759521484375
1772454512281003800,9.799003662109374,-0.9820098876953125,0.0720672607421875,0.0142974853515625
1772454512291021800,9.809021728515624,-0.9887847900390625,0.07244873046875,0.0133819580078125
1772454512301039600,9.81903955078125,-1.0059356689453125,0.071136474609375,0.0119781494140625
1772454512311058000,9.829057861328126,-1.0219879150390625,0.0699920654296875,0.0109100341796875
1772454512321074700,9.83907470703125,-1.0328369140625,0.07269287109375,-0.00244140625
1772454512331092700,9.8490927734375,-1.03375244140625,0.0744171142578125,-0.0073394775390625
1772454512341110800,9.85911083984375,-1.0242462158203125,0.0739593505859375,-0.0049285888671875
1772454512351128800,9.86912890625,-1.0098876953125,0.0685272216796875,0.0045013427734375
1772454512361145900,9.879145751953125,-0.9915313720703125,0.0648193359375,0.0140228271484375
1772454512371164000,9.889163818359375,-0.9751129150390625,0.0621185302734375,0.0169525146484375
1772454512381181700,9.899181640625,-0.9642181396484375,0.0601806640625,0.0185394287109375
1772454512391199700,9.90919970703125,-0.965087890625,0.0604248046875,0.0226593017578125
1772454512401217800,9.9192177734375,-0.97259521484375,0.060577392578125,0.023193359375
1772454512411234800,9.92923486328125,-0.9861602783203125,0.060302734375,0.0181732177734375
1772454512421252600,9.939252685546874,-1.0010223388671875,0.058563232421875,0.006317138671875
1772454512431271000,9.94927099609375,-1.011016845703125,0.057281494140625,-0.004364013671875
1772454512441288700,9.959288818359376,-1.014068603515625,0.05975341796875,-0.0034637451171875
1772454512451306000,9.969305908203125,-1.0051422119140625,0.0641326904296875,0.004669189453125
1772454512461323800,9.97932373046875,-0.9927215576171875,0.069915771484375,0.016021728515625
1772454512471341800,9.989341796875,-0.9833831787109375,0.07666015625,0.02667236328125
1772454512481359600,9.999359619140625,-0.9811553955078125,0.082061767578125,0.02935791015625
1772454512491377000,10.009376953125,-0.985137939453125,0.083465576171875,0.0255889892578125
1772454512501394700,10.019394775390625,-0.99322509765625,0.079681396484375,0.0132293701171875
1772454512511412700,10.029412841796875,-0.9979248046875,0.075592041015625,-0.0036468505859375
1772454512521430800,10.0394306640625,-0.9961090087890625,0.0680389404296875,-0.0139312744140625
1772454512531448800,10.04944873046875,-0.989776611328125,0.0571746826171875,-0.0131072998046875
1772454512541465900,10.0594658203125,-0.981903076171875,0.0479278564453125,-0.007659912109375
1772454512551484000,10.06948388671875,-0.97576904296875,0.0423583984375,-0.007232666015625
1772454512561501700,10.079501708984376,-0.9769439697265625,0.0456390380859375,-0.0118560791015625
1772454512571519700,10.089519775390626,-0.98553466796875,0.0538482666015625,-0.004913330078125
1772454512581536800,10.099536865234375,-0.995819091796875,0.066436767578125,-0.0005340576171875
1772454512591554800,10.109554931640625,-1.0082244873046875,0.08184814453125,0.0014190673828125
1772454512601572900,10.11957275390625,-1.0206146240234375,0.092010498046875,0.0016632080078125
1772454512611591000,10.1295908203125,-1.024871826171875,0.100372314453125,0.0032806396484375
1772454512621607700,10.139607666015625,-1.0257415771484375,0.101470947265625,0.0114593505859375
1772454512631626000,10.1496259765625,-1.0236663818359375,0.0981597900390625,0.0208282470703125
1772454512641643800,10.159643798828125,-1.016143798828125,0.092559814453125,0.0218963623046875
1772454512651661800,10.169661865234374,-1.005523681640625,0.0837860107421875,0.014678955078125
1772454512661678800,10.179678955078124,-0.9962310791015625,0.0751800537109375,0.0095977783203125
1772454512671697000,10.18969677734375,-0.984954833984375,0.0701446533203125,0.003997802734375
1772454512681714700,10.199714599609376,-0.9771881103515625,0.0685577392578125,0.001220703125
1772454512691733000,10.20973291015625,-0.9752197265625,0.069854736328125,0.0004119873046875
1772454512701750500,10.21975048828125,-0.98236083984375,0.0711517333984375,0.0018463134765625
1772454512711767600,10.229767578125,-0.986480712890625,0.074066162109375,0.001190185546875
1772454512721785600,10.23978564453125,-0.9881134033203125,0.0828094482421875,0.01190185546875
1772454512731803400,10.249803466796875,-0.991363525390625,0.093505859375,0.0134735107421875
1772454512741821400,10.259821533203125,-0.9937744140625,0.0962677001953125,0.0128326416015625
1772454512751838500,10.26983837890625,-0.9964752197265625,0.09613037109375,0.0127716064453125
1772454512761856300,10.279856201171874,-0.993988037109375,0.090728759765625,0.0083465576171875
1772454512771874300,10.289874267578124,-0.98828125,0.0811004638671875,0.00323486328125
1772454512781892600,10.299892578125,-0.9813232421875,0.071014404296875,-0.0011138916015625
1772454512791909400,10.309909423828126,-0.977447509765625,0.067535400390625,-0.0035552978515625
1772454512801927400,10.319927490234376,-0.9770355224609375,0.0651092529296875,-0.0009307861328125
1772454512811945500,10.329945556640626,-0.978302001953125,0.065399169921875,-0.0025634765625
1772454512821963500,10.339963623046875,-0.9835968017578125,0.067657470703125,-0.003570556640625
1772454512831981300,10.349981201171875,-0.988861083984375,0.0714111328125,-0.003875732421875
1772454512841998300,10.359998291015625,-0.9882965087890625,0.07818603515625,-0.003143310546875
1772454512852016400,10.370016357421875,-0.991241455078125,0.0872650146484375,0.00372314453125
1772454512862034400,10.380034423828125,-0.997283935546875,0.093017578125,0.007568359375
1772454512872052500,10.390052490234375,-0.9972991943359375,0.0924530029296875,0.0112152099609375
1772454512882069200,10.4000693359375,-0.9978179931640625,0.0899658203125,0.0128326416015625
1772454512892087600,10.410087646484374,-0.995941162109375,0.0862274169921875,0.0183868408203125
1772454512902105300,10.420105224609374,-0.9947357177734375,0.088836669921875,0.0009765625
1772454512912123400,10.430123291015626,-0.994659423828125,0.0865631103515625,-0.0071563720703125
1772454512922140400,10.440140380859376,-0.9940643310546875,0.081146240234375,-0.0065460205078125
1772454512932158500,10.450158447265625,-0.993743896484375,0.080474853515625,-0.00091552734375
1772454512942176300,10.46017626953125,-0.9901580810546875,0.08660888671875,0.005126953125
1772454512952194600,10.470194580078125,-0.9874420166015625,0.0894622802734375,0.0081634521484375
1772454512962212400,10.48021240234375,-0.9865570068359375,0.089019775390625,0.01043701171875
1772454512972229400,10.4902294921875,-0.9893646240234375,0.089691162109375,0.0132293701171875
1772454512982247400,10.500247314453125,-0.9954681396484375,0.0915679931640625,0.0121917724609375
1772454512992265500,10.510265380859375,-0.99847412109375,0.0951385498046875,0.00250244140625
1772454513002283300,10.520283203125,-0.9995269775390625,0.0927276611328125,0.0002288818359375
1772454513012300500,10.530300537109374,-1.0030670166015625,0.085205078125,0.0008392333984375
1772454513022318300,10.540318359375,-1.00213623046875,0.0794525146484375,0.0010833740234375
1772454513032336400,10.55033642578125,-0.9989013671875,0.0776519775390625,-0.0024566650390625
1772454513042354400,10.5603544921875,-0.9947662353515625,0.0797576904296875,-0.00701904296875
1772454513052371500,10.570371337890625,-0.9863433837890625,0.0835418701171875,-0.0067291259765625
1772454513062389200,10.58038916015625,-0.9866485595703125,0.0861053466796875,0.000030517578125
1772454513072407600,10.590407470703125,-0.9889068603515625,0.084716796875,0.002960205078125
1772454513082425300,10.60042529296875,-0.9924774169921875,0.08514404296875,0.00213623046875
1772454513092443400,10.610443359375,-0.9901123046875,0.0867156982421875,-0.0034637451171875
1772454513102460400,10.62046044921875,-0.9873199462890625,0.087799072265625,-0.0067596435546875
1772454513112478500,10.630478515625,-0.9826507568359375,0.0818939208984375,-0.0099639892578125
1772454513122496300,10.640496337890625,-0.979705810546875,0.0689697265625,-0.017730712890625
1772454513132514600,10.6505146484375,-0.9765472412109375,0.05767822265625,-0.0279541015625
1772454513142531300,10.66053125,-0.964752197265625,0.05615234375,-0.0250701904296875
1772454513152549600,10.670549560546876,-0.9487152099609375,0.0672454833984375,-0.0207061767578125
1772454513162567400,10.6805673828125,-0.9663543701171875,0.08709716796875,-0.0174560546875
1772454513172585500,10.69058544921875,-1.030731201171875,0.1052093505859375,-0.0179595947265625
1772454513182602500,10.7006025390625,-1.07232666015625,0.1048583984375,-0.0009918212890625
1772454513192620500,10.71062060546875,-1.0710601806640625,0.1110382080078125,0.01605224609375
1772454513202638300,10.720638427734375,-1.0430908203125,0.1224365234375,0.048126220703125
1772454513212656400,10.730656494140625,-0.997406005859375,0.1304168701171875,0.053863525390625
1772454513222674400,10.74067431640625,-0.9695281982421875,0.1299896240234375,0.0510101318359375
1772454513232691500,10.75069140625,-0.9611968994140625,0.11785888671875,0.04388427734375
1772454513242709500,10.76070947265625,-0.9690093994140625,0.0926971435546875,0.0225982666015625
1772454513252727600,10.7707275390625,-0.9895477294921875,0.075714111328125,-0.0037689208984375
1772454513262745300,10.780745361328124,-1.0047454833984375,0.0595550537109375,-0.0230712890625
