time,seconds_elapsed,z,y,x
1772454502543723800,0.061723876953125,0.05604089796543121,0.10740315169095993,-0.054734352976083755
1772454502553741600,0.071741455078125,0.03279496356844902,0.11452897638082504,-0.03985793516039848
1772454502563759900,0.081759765625,0.0031997880432754755,0.10925804823637009,-0.03557717055082321
1772454502573777700,0.091777587890625,-0.01804904080927372,0.10174287110567093,-0.04910682514309883
1772454502583795700,0.101795654296875,-0.02467418648302555,0.10368271917104721,-0.06528846174478531
1772454502593812700,0.111812744140625,-0.01990792714059353,0.10489765554666519,-0.08633462339639664
1772454502603830800,0.121830810546875,-0.017912421375513077,0.10998988151550293,-0.0988307073712349
1772454502613848600,0.1318486328125,-0.017432786524295807,0.11026552319526672,-0.1002752035856247
1772454502623867000,0.141866943359375,-0.017663681879639626,0.09040606021881104,-0.0858462005853653
1772454502633884700,0.151884765625,-0.022480009123682976,0.0649891197681427,-0.05175427347421646
1772454502643902000,0.16190185546875,-0.029459089040756226,0.04715472832322121,-0.0021632856223732233
1772454502653919700,0.171919677734375,-0.04483378306031227,0.034265562891960144,0.04722690209746361
1772454502663937800,0.181937744140625,-0.05475858598947525,0.013599964790046215,0.08392445743083954
1772454502673955600,0.19195556640625,-0.060682255774736404,-0.003781422507017851,0.10715947300195694
1772454502683972900,0.201972900390625,-0.058937352150678635,-0.016262326389551163,0.10639168322086334
1772454502693991400,0.211991455078125,-0.06673935055732727,-0.021559353917837143,0.08429517596960068
1772454502704009200,0.22200927734375,-0.07084114849567413,-0.018449846655130386,0.04430967569351196
1772454502714027500,0.232027587890625,-0.07260362803936005,-0.012179434299468994,-0.00637880340218544
1772454502724045300,0.24204541015625,-0.06756279617547989,0.015477759763598442,-0.047744885087013245
1772454502734062000,0.25206201171875,-0.05734877660870552,0.0522962287068367,-0.06174752116203308
1772454502744080400,0.262080322265625,-0.05241234228014946,0.09513343870639801,-0.05468961223959923
1772454502754098400,0.272098388671875,-0.06015494838356972,0.12017860263586044,-0.037088777869939804
1772454502764116200,0.2821162109375,-0.06329374760389328,0.12135092914104462,-0.01714196801185608
1772454502774134300,0.29213427734375,-0.064023457467556,0.1063019409775734,0.0032176312524825335
1772454502784151300,0.3021513671875,-0.05795864015817642,0.06925470381975174,0.018504709005355835
1772454502794169000,0.312169189453125,-0.047022368758916855,0.00998898409307003,0.03434891998767853
1772454502804187400,0.3221875,-0.03315555676817894,-0.03755642846226692,0.04916248470544815
1772454502814205400,0.332205322265625,-0.03229242563247681,-0.06220132112503052,0.05920819565653801
1772454502824222200,0.34222216796875,-0.03641606494784355,-0.06685493141412735,0.06352198123931885
1772454502834240300,0.352240234375,-0.03435850515961647,-0.0633547380566597,0.06133579462766647
1772454502844258300,0.36225830078125,-0.025592444464564323,-0.06253954768180847,0.046732619404792786
1772454502854276400,0.3722763671875,-0.01372460089623928,-0.058342400938272476,0.02767769992351532
1772454502864294400,0.38229443359375,-0.0013840447645634413,-0.052128713577985764,0.0043654534965753555
1772454502874311200,0.392311279296875,0.01227504201233387,-0.044564537703990936,-0.015304920263588428
1772454502884329200,0.4023291015625,0.018490860238671303,-0.04295945167541504,-0.02407524175941944
1772454502894347300,0.41234716796875,0.02353675104677677,-0.042575690895318985,-0.012973855249583721
1772454502904365300,0.422365234375,0.023928502574563026,-0.031019700691103935,0.007024353835731745
1772454502914383400,0.43238330078125,0.02154763601720333,-0.029576001688838005,0.03285488486289978
1772454502924400400,0.442400390625,0.016087623313069344,-0.032942503690719604,0.046910252422094345
1772454502934418200,0.452418212890625,0.010126669891178608,-0.04236530140042305,0.053592123091220856
1772454502944436200,0.462436279296875,0.007510913070291281,-0.04761279374361038,0.05648244917392731
1772454502954454500,0.47245458984375,0.006849916651844978,-0.057624414563179016,0.055266983807086945
1772454502964472300,0.482472412109375,0.003593403147533536,-0.05868328735232353,0.05156226083636284
1772454502974489000,0.492489013671875,0.0026351979468017817,-0.045395445078611374,0.04240098595619202
1772454502984507400,0.50250732421875,0.0039007319137454033,-0.0387580469250679,0.02803216688334942
1772454502994525200,0.512525146484375,0.014874020591378212,-0.026014024391770363,0.011922439560294151
1772454503004543200,0.522543212890625,0.02052391692996025,-0.019516443833708763,-0.002778209513053298
1772454503014560300,0.532560302734375,0.01763545349240303,-0.008403871208429337,-0.005775331053882837
1772454503024578300,0.542578369140625,0.017115071415901184,0.0009416937828063965,-0.007186007685959339
1772454503034596000,0.55259619140625,0.019266905263066292,0.01375123206526041,-0.00177952426020056
1772454503044614400,0.562614501953125,0.019906330853700638,0.025186579674482346,0.005375590641051531
1772454503054632200,0.572632080078125,0.032656747847795486,0.029794912785291672,0.014162956736981869
1772454503064649200,0.582649169921875,0.04333948343992233,0.029209017753601074,0.019714582711458206
1772454503074667300,0.592667236328125,0.050886351615190506,0.0254619512706995,0.02209571562707424
1772454503084685300,0.602685302734375,0.04721704497933388,0.014474280178546906,0.023145532235503197
1772454503094703000,0.612703125,0.0341944545507431,-0.008590558543801308,0.018060758709907532
1772454503104721400,0.622721435546875,0.022281071171164513,-0.03520459309220314,0.002295911079272628
1772454503114738200,0.63273828125,0.013698767870664597,-0.04093118757009506,-0.01739230565726757
1772454503124756200,0.642756103515625,0.005635515321046114,-0.0358424186706543,-0.04675658792257309
1772454503134774300,0.652774169921875,0.003683684393763542,-0.03080877847969532,-0.08536309748888016
1772454503144792300,0.662792236328125,0.003934021573513746,-0.025647839531302452,-0.11076805740594864
1772454503154810000,0.67281005859375,-0.0017622136510908604,-0.010690993629395962,-0.11824808269739151
1772454503164827400,0.682827392578125,0.0019259981345385313,-0.0027409254107624292,-0.10591338574886322
1772454503174845200,0.69284521484375,0.0065074339509010315,-0.006569219287484884,-0.07597146183252335
1772454503184863200,0.70286328125,0.01672731526196003,-0.025535985827445984,-0.046006105840206146
1772454503194881300,0.71288134765625,0.025799905881285667,-0.050457581877708435,-0.009841179475188255
1772454503204899300,0.7228994140625,0.033906035125255585,-0.09317974746227264,0.027173297479748726
1772454503214916400,0.732916259765625,0.034319356083869934,-0.12157463282346725,0.056404419243335724
1772454503224934400,0.742934326171875,0.03957963362336159,-0.1385703980922699,0.07663219422101974
1772454503234952200,0.7529521484375,0.051958806812763214,-0.1349106729030609,0.09052803367376328
1772454503244970200,0.76297021484375,0.05492397025227547,-0.11297129094600677,0.07305556535720825
1772454503254987300,0.7729873046875,0.055877912789583206,-0.08326612412929535,0.03236406669020653
1772454503265005300,0.78300537109375,0.05758393555879593,-0.05706728249788284,-0.01077035628259182
1772454503275023000,0.793023193359375,0.057612162083387375,-0.02858317457139492,-0.04583992436528206
1772454503285041400,0.80304150390625,0.056054480373859406,-0.007864315062761307,-0.07006856799125671
1772454503295059200,0.81305908203125,0.04844662919640541,0.006049104034900665,-0.08505603671073914
1772454503305076500,0.823076416015625,0.04683887958526611,0.027172498404979706,-0.09362982213497162
1772454503315094300,0.83309423828125,0.044129643589258194,0.040106408298015594,-0.09424847364425659
1772454503325112300,0.8431123046875,0.041605234146118164,0.04451926425099373,-0.07903169840574265
1772454503335130000,0.853130126953125,0.03554627671837807,0.03340349718928337,-0.0480910949409008
1772454503345148400,0.8631484375,0.017732657492160797,0.021407820284366608,-0.010583136230707169
1772454503355165200,0.873165283203125,-0.0029350698459893465,0.010849718004465103,0.023539414629340172
1772454503365183200,0.883183349609375,-0.022649651393294334,0.0036250948905944824,0.04193466529250145
1772454503375201300,0.893201171875,-0.03133901581168175,-0.005726595409214497,0.04572620987892151
1772454503385219300,0.90321923828125,-0.033000294119119644,-0.009471265599131584,0.03379764407873154
1772454503395237000,0.913237060546875,-0.03597318008542061,0.003974767867475748,0.01768498681485653
1772454503405254400,0.92325439453125,-0.03408020734786987,0.022224079817533493,0.0008080030675046146
1772454503415272200,0.933272216796875,-0.030474819242954254,0.035285551100969315,-0.0059814597479999065
1772454503425290200,0.943290283203125,-0.02544677071273327,0.04548945277929306,-0.01630733348429203
1772454503435308300,0.953308349609375,-0.01432407833635807,0.05306508392095566,-0.024590032175183296
1772454503445326300,0.963326416015625,0.0008748483960516751,0.04529504477977753,-0.02947959490120411
1772454503455343400,0.97334326171875,0.01966851018369198,0.0508464016020298,-0.01525858137756586
1772454503465361400,0.983361328125,0.026390595361590385,0.07818827778100967,0.020024575293064117
1772454503475379200,0.993379150390625,0.006593454163521528,0.02610616944730282,0.04489317163825035
1772454503485397200,1.003397216796875,-0.015843145549297333,-0.024867799133062363,0.07253571599721909
1772454503495414300,1.013414306640625,-0.023847009986639023,-0.03967098146677017,0.07808521389961243
1772454503505432300,1.023432373046875,-0.015924904495477676,-0.046846333891153336,0.07012955099344254
1772454503515450000,1.0334501953125,-0.020840033888816833,-0.024587634950876236,0.026503778994083405
1772454503525468400,1.043468505859375,-0.046133141964673996,0.0052355085499584675,-0.046306245028972626
1772454503535486200,1.053486328125,-0.06944485753774643,0.026674486696720123,-0.12295068800449371
1772454503545503500,1.06350341796875,-0.08917009085416794,0.08859750628471375,-0.1742170751094818
1772454503555521300,1.073521240234375,-0.09854388236999512,0.14031369984149933,-0.18837976455688477
1772454503565539300,1.083539306640625,-0.0856507197022438,0.1372920721769333,-0.18546973168849945
1772454503575557000,1.09355712890625,-0.06442586332559586,0.08879351615905762,-0.17153659462928772
1772454503585575400,1.103575439453125,-0.050215501338243484,0.02744094468653202,-0.16084854304790497
1772454503595592200,1.11359228515625,-0.04831559956073761,-0.027469174936413765,-0.14304636418819427
1772454503605610500,1.123610595703125,-0.047987766563892365,-0.06334488093852997,-0.12068753689527512
1772454503615628300,1.133628173828125,-0.040757548063993454,-0.06689860671758652,-0.09598458558320999
1772454503625646300,1.143646240234375,-0.03009292110800743,-0.04590357467532158,-0.06915324181318283
1772454503635663400,1.153663330078125,-0.010894459672272205,-0.021168401464819908,-0.04710199683904648
1772454503645681400,1.163681396484375,0.007032609544694424,-0.010673150420188904,-0.030545393005013466
1772454503655699200,1.17369921875,0.026824424043297768,0.011355984956026077,-0.013549364171922207
1772454503665717200,1.18371728515625,0.03195873275399208,0.039569780230522156,-0.0022682142443954945
1772454503675735300,1.1937353515625,0.03411881998181343,0.04445801302790642,0.008598015643656254
1772454503685752300,1.20375244140625,0.038058970123529434,0.020387031137943268,0.02593439444899559
1772454503695770400,1.213770263671875,0.030285734683275223,-0.013601562939584255,0.03562004491686821
1772454503705788400,1.223788330078125,0.016957944259047508,-0.03608982637524605,0.03880998119711876
1772454503715806200,1.23380615234375,0.0035457327030599117,-0.040999896824359894,0.029233252629637718
1772454503725824300,1.24382421875,-0.0022620889358222485,-0.0556211844086647,0.0012455604737624526
1772454503735841300,1.25384130859375,0.007733287289738655,-0.07672540098428726,-0.023082150146365166
1772454503745859300,1.263859375,0.024323714897036552,-0.10239827632904053,-0.03470471873879433
1772454503755877400,1.27387744140625,0.029342975467443466,-0.11381231993436813,-0.01853719912469387
1772454503765895400,1.2838955078125,0.012769058346748352,-0.07467104494571686,0.007273625582456589
1772454503775912200,1.293912109375,-0.021806761622428894,-0.000803209375590086,0.032393891364336014
1772454503785930500,1.303930419921875,-0.04765087738633156,0.05753945931792259,0.053281065076589584
1772454503795948300,1.3139482421875,-0.04878538101911545,0.08498945832252502,0.06890396773815155
1772454503805966300,1.32396630859375,-0.04171122610569,0.08652210980653763,0.06826667487621307
1772454503815984000,1.333984130859375,-0.031551800668239594,0.07569689303636551,0.06351612508296967
1772454503826001400,1.34400146484375,-0.025021197274327278,0.05781456455588341,0.04647189378738403
1772454503836019200,1.354019287109375,-0.02123178541660309,0.02971901372075081,0.028903020545840263
1772454503846037500,1.36403759765625,-0.019237609580159187,0.00803262647241354,0.009094162844121456
1772454503856055300,1.37405517578125,-0.016741961240768433,-0.006131395697593689,-0.012776249088346958
1772454503866073300,1.3840732421875,-0.009740778245031834,-0.02696290798485279,-0.026277143508195877
1772454503876090400,1.39409033203125,-0.003179814200848341,-0.033195238560438156,-0.022875754162669182
1772454503886108400,1.4041083984375,0.005262672435492277,-0.03344211354851723,-0.014772288501262665
1772454503896126200,1.414126220703125,0.004203799646347761,-0.04511368274688721,-0.005408880300819874
1772454503906144300,1.424144287109375,0.0007893609581515193,-0.05625900998711586,0.009034507907927036
1772454503916162300,1.434162353515625,-0.007700796704739332,-0.04742637276649475,0.02315804921090603
1772454503926179300,1.444179443359375,-0.012253737077116966,-0.04540716111660004,0.022249378263950348
1772454503936197400,1.454197265625,-0.015145663172006607,-0.043360255658626556,0.007694937754422426
1772454503946215400,1.46421533203125,-0.012444951571524143,-0.02273833565413952,-0.00851545762270689
1772454503956233200,1.474233154296875,-0.010419617407023907,-0.010616691783070564,-0.03309616819024086
1772454503966250500,1.48425048828125,-0.005801962688565254,-0.01230540219694376,-0.04408889636397362
1772454503976268300,1.494268310546875,-0.003174487967044115,-0.022220084443688393,-0.05017076060175896
1772454503986286300,1.504286376953125,0.00035606464371085167,-0.0377495102584362,-0.031019967049360275
1772454503996304400,1.514304443359375,0.0038629150949418545,-0.04454216733574867,-0.001326786819845438
1772454504006322400,1.524322509765625,0.001615473534911871,-0.039020635187625885,0.022553779184818268
1772454504016339200,1.534339111328125,-0.0025358619168400764,-0.021683990955352783,0.0337371900677681
1772454504026357500,1.544357421875,-0.004209125880151987,-0.0016817862633615732,0.031074030324816704
1772454504036375300,1.554375244140625,-0.005367601290345192,0.010570086538791656,0.022046446800231934
1772454504046393300,1.564393310546875,-0.004861600697040558,0.014956045895814896,0.011783954687416553
1772454504056411400,1.574411376953125,-0.005224855616688728,0.025434786453843117,0.004945223685353994
1772454504066428400,1.584428466796875,-0.008728244341909885,0.03123142197728157,0.0016117451013997197
1772454504076446200,1.5944462890625,-0.010005496442317963,0.023660855367779732,0.006844590418040752
1772454504086464500,1.604464599609375,-0.009653160348534584,0.00794234499335289,0.018184063956141472
1772454504096482300,1.614482421875,-0.01607164368033409,-0.013741112314164639,0.026951989158988
1772454504106499000,1.6244990234375,-0.016653811559081078,-0.025660622864961624,0.02592454105615616
1772454504116517400,1.634517333984375,-0.01601145789027214,-0.031140075996518135,0.01589241437613964
1772454504126535400,1.644535400390625,-0.01107289083302021,-0.03127935901284218,0.0030863373540341854
1772454504136553200,1.65455322265625,0.0026405241806060076,-0.019723903387784958,-0.012377041392028332
1772454504146571500,1.664571533203125,0.010365289635956287,-0.013323795050382614,-0.025302426889538765
1772454504156588300,1.67458837890625,0.022730879485607147,-0.017587250098586082,-0.030714236199855804
1772454504166606000,1.684606201171875,0.03864939138293266,-0.016990168020129204,-0.024444090202450752
1772454504176624400,1.694624267578125,0.044193025678396225,0.0014594122767448425,-0.01224841084331274
1772454504186642400,1.704642333984375,0.04481460899114609,0.006992928218096495,0.00464615086093545
1772454504196660200,1.71466015625,0.04256690293550491,0.0009960222523659468,0.012582637369632721
1772454504206677200,1.72467724609375,0.04066913202404976,0.0003001382574439049,0.013465475291013718
1772454504216695300,1.7346953125,0.038244325667619705,-0.001785116852261126,0.0012876383261755109
1772454504226713300,1.74471337890625,0.02930036373436451,-0.012515791691839695,-0.018007230013608932
1772454504236731400,1.7547314453125,0.016507336869835854,0.002654372714459896,-0.03544534370303154
1772454504246748200,1.764748046875,0.003922570031136274,0.0355481393635273,-0.04156262427568436
1772454504256766200,1.77476611328125,-0.004862399306148291,0.06392917782068253,-0.026372218504548073
1772454504266784300,1.7847841796875,-0.014695589430630207,0.07563643902540207,0.005387841258198023
1772454504276802300,1.79480224609375,-0.025552498176693916,0.07566093653440475,0.0459243468940258
1772454504286820400,1.8048203125,-0.042625490576028824,0.06196083873510361,0.08108020573854446
1772454504296837400,1.81483740234375,-0.05696368217468262,0.03345010057091713,0.11154890060424805
1772454504306855200,1.824855224609375,-0.06982382386922836,0.032521456480026245,0.1341807097196579
1772454504316873200,1.834873291015625,-0.07036950439214706,0.14113368093967438,0.12712812423706055
1772454504326891500,1.8448916015625,-0.057562895119190216,0.22040879726409912,0.10176870226860046
1772454504336909300,1.854909423828125,-0.0396059975028038,0.2602912485599518,0.06956949084997177
1772454504346926300,1.86492626953125,-0.024454742670059204,0.257698118686676,0.055131696164608
1772454504356944400,1.8749443359375,-0.011837750673294067,0.2587948143482208,0.04588892683386803
1772454504366962200,1.884962158203125,0.006198240909725428,0.26952043175697327,0.044563740491867065
1772454504376980200,1.894980224609375,0.02990490198135376,0.27176013588905334,0.052323125302791595
1772454504386997200,1.904997314453125,0.05277586355805397,0.2504633665084839,0.07199429720640182
1772454504397015300,1.915015380859375,0.07111705094575882,0.26302072405815125,0.09321516752243042
1772454504407033000,1.925033203125,0.09118077903985977,0.259644091129303,0.10960958153009415
1772454504417051400,1.935051513671875,0.12369956821203232,0.22976049780845642,0.1168331429362297
1772454504427069200,1.945069091796875,0.14181704819202423,0.13591068983078003,0.10712379217147827
1772454504437086500,1.95508642578125,0.1523975282907486,0.009674198925495148,0.08804463595151901
1772454504447104300,1.965104248046875,0.16181419789791107,-0.13783936202526093,0.05669017881155014
1772454504457122300,1.975122314453125,0.1971663236618042,-0.3100734353065491,0.007604922633618116
1772454504467140000,1.98514013671875,0.2570493817329407,-0.4712463617324829,-0.07662580162286758
1772454504477158400,1.995158447265625,0.34871459007263184,-0.4809863269329071,-0.16145333647727966
1772454504487175200,2.005175048828125,0.355277419090271,-0.11794980615377426,-0.08941803127527237
1772454504497193200,2.015193115234375,0.26355254650115967,0.25706616044044495,0.16044241189956665
1772454504507211300,2.025211181640625,0.17347778379917145,0.33289432525634766,0.3875919282436371
1772454504517229300,2.035229248046875,0.1054084450006485,0.3609637916088104,0.5393926501274109
1772454504527246300,2.045246337890625,0.056831590831279755,0.38995522260665894,0.6001971364021301
1772454504537264400,2.055264404296875,0.016888702288269997,0.3731123208999634,0.5866416692733765
1772454504547282200,2.0652822265625,-0.027269970625638962,0.32834672927856445,0.5252565741539001
1772454504557300200,2.07530029296875,-0.0801323875784874,0.32146909832954407,0.4237203896045685
1772454504567318300,2.085318359375,-0.13351865112781525,0.35225337743759155,0.31741392612457275
1772454504577335300,2.095335205078125,-0.17473985254764557,0.37303856015205383,0.23006115853786469
1772454504587353300,2.105353271484375,-0.1991538405418396,0.382703959941864,0.17163167893886566
1772454504597371400,2.115371337890625,-0.19240033626556396,0.365701824426651,0.1322922557592392
1772454504607389200,2.12538916015625,-0.1577659249305725,0.2822359502315521,0.1120423823595047
1772454504617407200,2.1354072265625,-0.10427527129650116,0.15094424784183502,0.09665384143590927
1772454504627424300,2.14542431640625,-0.0382097028195858,-0.008406001143157482,0.07589716464281082
1772454504637442300,2.1554423828125,0.0317496731877327,-0.2001733034849167,0.055151667445898056
1772454504647460000,2.165460205078125,0.09389853477478027,-0.35111382603645325,0.03792181611061096
1772454504657478400,2.175478515625,0.1433771401643753,-0.39964139461517334,0.03311401233077049
1772454504667495200,2.1854951171875,0.18779972195625305,-0.37718936800956726,0.06253261864185333
1772454504677513500,2.195513427734375,0.22854822874069214,-0.26682770252227783,0.13212688267230988
1772454504687531300,2.20553125,0.2173174023628235,-0.16040699183940887,0.2744872272014618
1772454504697548500,2.215548583984375,0.15155915915966034,-0.2017403095960617,0.3377535343170166
1772454504707566600,2.225566650390625,0.04268088564276695,-0.04207421466708183,0.3075666129589081
1772454504717583600,2.23558349609375,-0.06483226269483566,0.0859210342168808,0.2275490015745163
1772454504727601400,2.245601318359375,-0.14190679788589478,0.15571236610412598,0.15328729152679443
1772454504737619700,2.25561962890625,-0.18921732902526855,0.23268970847129822,0.04996063560247421
1772454504747637500,2.265637451171875,-0.20672814548015594,0.18993212282657623,-0.07125287503004074
1772454504757654800,2.27565478515625,-0.17640939354896545,0.04501088336110115,-0.16515487432479858
1772454504767672600,2.285672607421875,-0.058527491986751556,-0.13512825965881348,-0.19968141615390778
1772454504777690600,2.295690673828125,0.14289642870426178,-0.3341691792011261,-0.1910967230796814
1772454504787708400,2.30570849609375,0.3790847361087799,-0.5806540846824646,-0.1514558345079422
1772454504797726700,2.315726806640625,0.5948883891105652,-0.811284065246582,-0.10435117036104202
1772454504807743500,2.325743408203125,0.7254514694213867,-0.9233773350715637,-0.05591333284974098
1772454504817761500,2.335761474609375,0.7343035340309143,-0.8719533085823059,-0.019712718203663826
1772454504827779600,2.345779541015625,0.6425171494483948,-0.7316630482673645,-0.007823036052286625
1772454504837797600,2.355797607421875,0.49516740441322327,-0.6400055289268494,0.0034077810123562813
1772454504847815400,2.3658154296875,0.3323974013328552,-0.5335438251495361,0.031686291098594666
1772454504857832700,2.375832763671875,0.1827668845653534,-0.3153323829174042,0.09226441383361816
1772454504867850500,2.3858505859375,0.05548030138015747,-0.02321504056453705,0.16318519413471222
1772454504877868500,2.39586865234375,-0.056227054446935654,0.2185981124639511,0.2078610509634018
1772454504887886600,2.405886474609375,-0.14920173585414886,0.35710805654525757,0.21017347276210785
1772454504897903400,2.4159033203125,-0.19575965404510498,0.41307997703552246,0.17347964644432068
1772454504907921700,2.425921630859375,-0.19022665917873383,0.4093100130558014,0.11389753967523575
1772454504917939700,2.435939697265625,-0.14529940485954285,0.3671066462993622,0.0418182872235775
1772454504927957500,2.44595751953125,-0.07566040754318237,0.3023236393928528,-0.03329670429229736
1772454504937975600,2.4559755859375,-0.006843258626759052,0.2346428632736206,-0.10098546743392944
1772454504947992600,2.46599267578125,0.04904823750257492,0.15545430779457092,-0.16046850383281708
1772454504958010600,2.4760107421875,0.08172468841075897,0.038301583379507065,-0.19163388013839722
1772454504968028700,2.486028564453125,0.09830047190189362,-0.06993167847394943,-0.19998635351657867
1772454504978046700,2.496046630859375,0.10092794895172119,-0.12944747507572174,-0.19128553569316864
1772454504988063500,2.5060634765625,0.08690773695707321,-0.15916302800178528,-0.17453426122665405
1772454504998081500,2.51608154296875,0.056126918643713,-0.21384784579277039,-0.15842612087726593
1772454505008099600,2.526099609375,0.020597154274582863,-0.21707719564437866,-0.1398732215166092
1772454505018117600,2.53611767578125,-0.011083277873694897,-0.15111228823661804,-0.11597347259521484
1772454505028135400,2.546135498046875,-0.036195553839206696,-0.05389492213726044,-0.0986112654209137
1772454505038152400,2.55615234375,-0.04651077464222908,0.03159308061003685,-0.08435509353876114
1772454505048170500,2.56617041015625,-0.040109336376190186,0.05933762714266777,-0.06842992454767227
1772454505058188500,2.5761884765625,-0.01739816553890705,0.06120822951197624,-0.046789608895778656
1772454505068206600,2.58620654296875,0.0067782774567604065,0.08140803873538971,-0.023790551349520683
1772454505078224600,2.596224609375,0.018564363941550255,0.12595553696155548,-0.005828860681504011
1772454505088241700,2.60624169921875,0.016882576048374176,0.1584884375333786,0.0014325142838060856
1772454505098259500,2.616259521484375,0.00953704584389925,0.1542992889881134,-0.0038658445701003075
1772454505108277500,2.626277587890625,0.0023393207229673862,0.10437913239002228,-0.020966533571481705
1772454505118295600,2.636295654296875,-0.008886702358722687,0.025440111756324768,-0.044316865503787994
1772454505128312600,2.6463125,-0.015355519950389862,-0.038008369505405426,-0.0708070620894432
1772454505138330400,2.656330322265625,-0.01630813255906105,-0.05702919885516167,-0.0902412161231041
1772454505148348700,2.6663486328125,-0.026743730530142784,-0.034261565655469894,-0.11458490043878555
1772454505158366500,2.676366455078125,-0.03388392925262451,-0.01290754321962595,-0.13286563754081726
1772454505168384500,2.686384521484375,-0.02792217768728733,-0.014104367233812809,-0.1482539176940918
1772454505178401500,2.696401611328125,-0.013112872838973999,-0.045473743230104446,-0.1529594510793686
1772454505188419600,2.706419677734375,0.004541488364338875,-0.07304411381483078,-0.13678820431232452
1772454505198437400,2.716437255859375,0.027591148391366005,-0.04912067577242851,-0.11435852944850922
1772454505208455700,2.72645556640625,0.02659086510539055,-0.015270032919943333,-0.08348530530929565
1772454505218472400,2.736472412109375,0.0015864450251683593,-0.004364654887467623,-0.05565580353140831
1772454505228490500,2.746490478515625,-0.03301893547177315,0.0052139367908239365,-0.04481034725904465
1772454505238508500,2.756508544921875,-0.07063182443380356,0.006052832584828138,-0.0415695458650589
1772454505248526600,2.766526611328125,-0.0912148654460907,0.0017246630741283298,-0.06103246286511421
1772454505258544400,2.77654443359375,-0.09243486076593399,-0.0029763488564640284,-0.09032190591096878
1772454505268561700,2.786561767578125,-0.07581619918346405,-0.02376844547688961,-0.11498250812292099
1772454505278579500,2.796579345703125,-0.05799752101302147,-0.06358537077903748,-0.13540895283222198
1772454505288597500,2.806597412109375,-0.04259619489312172,-0.11425653100013733,-0.13157160580158234
1772454505298615600,2.816615478515625,-0.02003416232764721,-0.13190104067325592,-0.0894414633512497
1772454505308633600,2.826633544921875,0.0017483652336522937,-0.07955687493085861,-0.017137175425887108
1772454505318650400,2.836650390625,0.016941698268055916,-0.005967078730463982,0.06049636751413345
1772454505328668700,2.846668701171875,0.023196399211883545,0.055452074855566025,0.12518322467803955
1772454505338686500,2.8566865234375,0.021131383255124092,0.1027466207742691,0.16870646178722382
1772454505348704500,2.86670458984375,0.01804744452238083,0.12796862423419952,0.18206967413425446
1772454505358721500,2.876721435546875,0.023301061242818832,0.11977913230657578,0.17673003673553467
1772454505368739600,2.886739501953125,0.02660551108419895,0.09390386193990707,0.1473654806613922
1772454505378757400,2.89675732421875,0.025058748200535774,0.06291452050209045,0.10698769986629486
1772454505388775700,2.906775634765625,0.011358914896845818,0.044799428433179855,0.055936504155397415
1772454505398793500,2.91679345703125,-0.01155439019203186,0.03702699393033981,0.001344363670796156
1772454505408810500,2.926810546875,-0.03999455273151398,0.02207387611269951,-0.04923705384135246
1772454505418828500,2.93682861328125,-0.05669443681836128,-0.0019864519126713276,-0.0922074243426323
1772454505428846600,2.9468466796875,-0.06819503009319305,-0.022117819637060165,-0.12022387981414795
1772454505438864400,2.956864501953125,-0.06606689840555191,-0.028900623321533203,-0.13365766406059265
1772454505448881700,2.966881591796875,-0.05030897632241249,-0.01775822415947914,-0.12847568094730377
1772454505458899500,2.9768994140625,-0.027341876178979874,-0.017469005659222603,-0.09715211391448975
1772454505468917500,2.98691748046875,-0.007242999039590359,-0.010572749190032482,-0.052380915731191635
1772454505478935600,2.996935546875,0.009793242439627647,0.009381784126162529,0.0005744438385590911
1772454505488953600,3.00695361328125,0.015035408549010754,0.030416760593652725,0.043533097952604294
1772454505498970600,3.016970703125,0.006345780100673437,0.03921185061335564,0.061169881373643875
1772454505508988700,3.02698876953125,-0.016815464943647385,0.0349167063832283,0.05234256759285927
1772454505519006500,3.03700634765625,-0.03639502450823784,0.016437828540802002,0.02491440437734127
1772454505529024500,3.0470244140625,-0.04976809024810791,0.011755725368857384,-0.010920025408267975
1772454505539041500,3.05704150390625,-0.04818537086248398,0.006566023454070091,-0.03204847872257233
1772454505549059600,3.0670595703125,-0.042690739035606384,-0.011628692969679832,-0.04500316083431244
1772454505559077400,3.077077392578125,-0.03578462824225426,-0.032703883945941925,-0.040224917232990265
1772454505569095700,3.087095703125,-0.02737969346344471,-0.036432042717933655,-0.021931663155555725
1772454505579113500,3.097113525390625,-0.018259696662425995,-0.018764100968837738,0.010404970496892929
1772454505589130800,3.107130859375,-0.015966981649398804,-0.006359894759953022,0.04020734131336212
1772454505599148500,3.1171484375,-0.01984907127916813,0.008438758552074432,0.06825228780508041
1772454505609166600,3.12716650390625,-0.020320184528827667,0.032465264201164246,0.07533124089241028
1772454505619184400,3.137184326171875,-0.020843762904405594,0.060569338500499725,0.07131519168615341
1772454505629201700,3.14720166015625,-0.017840782180428505,0.08034836500883102,0.06673828512430191
1772454505639219500,3.157219482421875,-0.0031931300181895494,0.08936529606580734,0.054608915001153946
1772454505649237800,3.16723779296875,0.004653075244277716,0.08730906993150711,0.0413181446492672
1772454505659255600,3.177255615234375,0.013248959556221962,0.0790490135550499,0.03165460005402565
1772454505669273600,3.187273681640625,0.016762468963861465,0.061104897409677505,0.019941218197345734
1772454505679290600,3.19729052734375,0.012989302165806293,0.030104905366897583,0.010893660597503185
1772454505689308700,3.20730859375,0.0070770843885838985,0.0021731394808739424,0.0009363674325868487
1772454505699327000,3.217326904296875,0.002412557601928711,-0.019354522228240967,-0.00920548290014267
1772454505709344800,3.2273447265625,-0.0033420007675886154,-0.04061613604426384,-0.027534954249858856
1772454505719363000,3.237363037109375,-0.011120827868580818,-0.0541955940425396,-0.05596739426255226
1772454505729379800,3.2473798828125,-0.013853497803211212,-0.06595344841480255,-0.08199180662631989
1772454505739398000,3.25739794921875,-0.01528787612915039,-0.07799147069454193,-0.09969063848257065
1772454505749416000,3.267416015625,-0.010481403209269047,-0.07821730524301529,-0.0941280946135521
1772454505759434000,3.27743408203125,0.006625678390264511,-0.05686701089143753,-0.06300532817840576
1772454505769451000,3.287450927734375,0.018328674137592316,-0.03307512775063515,-0.012174640782177448
1772454505779469000,3.297468994140625,0.027956001460552216,-0.008580172434449196,0.037103958427906036
1772454505789486800,3.30748681640625,0.03170892596244812,0.022240323945879936,0.07429340481758118
1772454505799505000,3.3175048828125,0.03623869642615318,0.043773312121629715,0.09163510799407959
1772454505809523000,3.32752294921875,0.03353399038314819,0.050284743309020996,0.09470227360725403
1772454505819540000,3.3375400390625,0.026451846584677696,0.04429475963115692,0.07780478149652481
1772454505829558000,3.34755810546875,0.008805742487311363,0.025775937363505363,0.0436960831284523
1772454505839576000,3.357576171875,-0.006439523305743933,0.015725700184702873,0.004298341926187277
1772454505849593900,3.36759375,-0.01200020406395197,0.007480020634829998,-0.02292635478079319
1772454505859611100,3.377611083984375,-0.007421164773404598,0.004482366610318422,-0.0406065471470356
1772454505869629000,3.38762890625,0.004022704903036356,0.004518585279583931,-0.0471067912876606
1772454505879647000,3.39764697265625,0.01637231558561325,0.005959355738013983,-0.04314880073070526
1772454505889664800,3.407664794921875,0.034930020570755005,0.009127452038228512,-0.025170333683490753
1772454505899683000,3.41768310546875,0.04385107755661011,0.03274250030517578,-0.0041156490333378315
1772454505909699800,3.427699951171875,0.03838733583688736,0.051049601286649704,0.008505071513354778
1772454505919718100,3.43771826171875,0.02479509450495243,0.04790760576725006,0.016082296147942543
1772454505929736000,3.44773583984375,0.00788242369890213,0.03804725036025047,0.02419082447886467
1772454505939754000,3.45775390625,-0.008945558220148087,0.03712553158402443,0.021449364721775055
1772454505949771000,3.46777099609375,-0.011405520141124725,0.03937510401010513,0.010644122026860714
1772454505959789000,3.4777890625,-0.006938599981367588,0.037219006568193436,0.0017150756902992725
1772454505969806800,3.487806884765625,-0.00023462448734790087,0.045934733003377914,-0.007756456732749939
1772454505979825000,3.497824951171875,0.01185346394777298,0.05826463922858238,-0.006084790453314781
1772454505989843000,3.507843017578125,0.012732306495308876,0.06247269734740257,0.0009198558400385082
1772454505999860000,3.51785986328125,0.0148623026907444,0.06296724826097488,0.011361044831573963
1772454506009878000,3.5278779296875,0.012900352478027344,0.05127330869436264,0.013893445022404194
1772454506019896000,3.53789599609375,0.008902414701879025,0.030285468325018883,0.016920659691095352
1772454506029913900,3.547913818359375,0.001722532557323575,0.031684692949056625,0.012267584912478924
1772454506039931100,3.55793115234375,0.0037878139410167933,0.03158455714583397,0.012310462072491646
1772454506049949000,3.567948974609375,0.004061853047460318,0.039154861122369766,0.013973339460790157
1772454506059967000,3.577967041015625,0.009839847683906555,0.0517265759408474,0.019057048484683037
1772454506069985000,3.587985107421875,0.010538128204643726,0.06785041838884354,0.02587633766233921
1772454506080003000,3.598003173828125,0.00890933908522129,0.0680387020111084,0.03377207741141319
1772454506090019800,3.608019775390625,0.005936718545854092,0.062187206000089645,0.03356994315981865
1772454506100038100,3.6180380859375,-0.004865861497819424,0.056477125734090805,0.029022064059972763
1772454506110056000,3.628055908203125,-0.0068001155741512775,0.05560414120554924,0.024779383093118668
1772454506120074000,3.638073974609375,-0.0026317357551306486,0.045643117278814316,0.015969112515449524
1772454506130092000,3.648092041015625,0.007053382229059935,0.02641403116285801,0.008971923030912876
1772454506140109000,3.658109130859375,0.025144236162304878,0.003703924361616373,-0.000737695605494082
1772454506150126800,3.668126953125,0.03869466483592987,-0.016519853845238686,-0.008065116591751575
1772454506160145200,3.678145263671875,0.033896978944540024,-0.04053996875882149,-0.01684396155178547
1772454506170163000,3.688162841796875,0.01949726790189743,-0.034759312868118286,-0.034385405480861664
1772454506180180000,3.698179931640625,-0.006147641222923994,-0.027707794681191444,-0.051484763622283936
1772454506190198000,3.708197998046875,-0.025248631834983826,-0.03676733374595642,-0.05730350315570831
1772454506200216000,3.718216064453125,-0.03652685135602951,-0.022653646767139435,-0.04976968839764595
1772454506210233900,3.72823388671875,-0.03068041428923607,0.011993546038866043,-0.025288311764597893
1772454506220252200,3.738252197265625,-0.015988286584615707,0.04048990085721016,0.013759488239884377
1772454506230269000,3.74826904296875,0.002082591876387596,0.05835385248064995,0.058567970991134644
1772454506240287000,3.758286865234375,0.014536598697304726,0.08035475760698318,0.10074445605278015
1772454506250305000,3.768304931640625,0.024278175085783005,0.08185731619596481,0.13320758938789368
1772454506260323000,3.778322998046875,0.024641430005431175,0.06279493868350983,0.14745017886161804
1772454506270339800,3.78833984375,0.016717461869120598,0.04092586040496826,0.1396724134683609
1772454506280358100,3.798358154296875,0.004253334365785122,0.015744607895612717,0.10667451471090317
1772454506290376000,3.8083759765625,-0.0020421119406819344,-0.0054128747433424,0.05986519902944565
1772454506300394000,3.81839404296875,-0.00729519734159112,-0.025428127497434616,-0.0062975771725177765
1772454506310412000,3.828412109375,-0.004789162427186966,-0.03951758146286011,-0.07291575521230698
1772454506320429000,3.838428955078125,0.002552639925852418,-0.06578593701124191,-0.1192861795425415
1772454506330446800,3.84844677734375,0.00863396842032671,-0.09066145867109299,-0.14386501908302307
1772454506340465200,3.858465087890625,0.01991778239607811,-0.09478882700204849,-0.12107609212398529
1772454506350483000,3.86848291015625,0.03392041474580765,-0.058333080261945724,-0.06293529272079468
1772454506360500000,3.8785,0.0398360975086689,-0.030710775405168533,0.015362710691988468
1772454506370518000,3.88851806640625,0.03829439356923103,0.006678941659629345,0.09173204749822617
1772454506380536000,3.8985361328125,0.041186850517988205,0.046794403344392776,0.15325692296028137
1772454506390553900,3.908553955078125,0.03837268799543381,0.06558220833539963,0.1915912628173828
1772454506400572200,3.918572265625,0.03549807146191597,0.054178282618522644,0.1984318643808365
1772454506410589000,3.9285888671875,0.02947986125946045,0.03044046275317669,0.17603521049022675
1772454506420607000,3.93860693359375,0.029027657583355904,0.002412291243672371,0.13655304908752441
1772454506430625000,3.948625,0.027406323701143265,-0.010202569887042046,0.08357798308134079
1772454506440643000,3.95864306640625,0.019599268212914467,-0.008007326163351536,0.017963554710149765
1772454506450660000,3.96866015625,0.001511610229499638,-0.012976785190403461,-0.045335255563259125
1772454506460678000,3.978677978515625,-0.013026852160692215,-0.030610639601945877,-0.09571507573127747
1772454506470696000,3.988696044921875,-0.029317675158381462,-0.06538033485412598,-0.13729234039783478
1772454506480714000,3.9987138671875,-0.040644630789756775,-0.10665134340524673,-0.16946280002593994
1772454506490732000,4.00873193359375,-0.047085221856832504,-0.15060628950595856,-0.1805008053779602
1772454506500748800,4.018748779296875,-0.04091973602771759,-0.17785148322582245,-0.18029680848121643
1772454506510767000,4.02876708984375,-0.028244154527783394,-0.18265503644943237,-0.14403679966926575
1772454506520785000,4.038784912109375,-0.0073079802095890045,-0.09949010610580444,-0.0784362182021141
1772454506530803000,4.048802978515625,0.012927250005304813,0.02160329557955265,0.00833915639668703
1772454506540820000,4.058820068359375,0.02467418648302555,0.11851412802934647,0.10149279981851578
1772454506550838000,4.068838134765625,0.026825223118066788,0.1822664737701416,0.17682750523090363
1772454506560855800,4.078855712890625,0.0254017636179924,0.20044441521167755,0.2287389039993286
1772454506570873900,4.088873779296875,0.027360783889889717,0.17643707990646362,0.2475738376379013
1772454506580892200,4.09889208984375,0.02442491613328457,0.12002120912075043,0.22601155936717987
1772454506590909000,4.108908935546875,0.024872060865163803,0.04927726835012436,0.17457979917526245
1772454506600927000,4.118927001953125,0.01931697316467762,-0.013879329897463322,0.10147389024496078
1772454506610945000,4.128945068359375,0.006643787957727909,-0.06294593960046768,0.009246229194104671
1772454506620962800,4.138962890625,-0.009583384729921818,-0.09664984047412872,-0.06735720485448837
1772454506630980000,4.14897998046875,-0.028901955112814903,-0.11174916476011276,-0.13784921169281006
1772454506640998000,4.158997802734375,-0.041488055139780045,-0.11708827316761017,-0.16340303421020508
1772454506651016000,4.169015869140625,-0.043900344520807266,-0.09281276166439056,-0.16064028441905975
1772454506661034000,4.179033935546875,-0.035602468997240067,-0.05570800229907036,-0.12193336337804794
1772454506671052000,4.189052001953125,-0.021863752976059914,0.0033422671258449554,-0.05474101006984711
1772454506681068800,4.19906884765625,-0.0014061490073800087,0.05970887094736099,0.020315658301115036
1772454506691087000,4.209087158203125,0.011062504723668098,0.0999407097697258,0.09398827701807022
1772454506701105000,4.21910498046875,0.018380071967840195,0.11878763884305954,0.1515253484249115
1772454506711123000,4.229123046875,0.021101024001836777,0.11511193960905075,0.17611271142959595
1772454506721140000,4.239139892578125,0.016743559390306473,0.09213259071111679,0.16820338368415833
1772454506731158000,4.249157958984375,0.011286210268735886,0.0614902600646019,0.1336294263601303
1772454506741175800,4.25917578125,-0.006764961872249842,0.0393332913517952,0.0725271999835968
1772454506751194000,4.269194091796875,-0.028631111606955528,0.01438373327255249,-0.00845740083605051
1772454506761212000,4.2792119140625,-0.04320233315229416,-0.0274990014731884,-0.0804908499121666
1772454506771229000,4.28922900390625,-0.053152166306972504,-0.06411080807447433,-0.14396676421165466
1772454506781247000,4.2992470703125,-0.055935438722372055,-0.09102844446897507,-0.20091073215007782
1772454506791265000,4.30926513671875,-0.04982348158955574,-0.12467215955257416,-0.23948396742343903
1772454506801282800,4.31928271484375,-0.038913577795028687,-0.13573572039604187,-0.24843643605709076
1772454506811300000,4.329300048828125,-0.024146880954504013,-0.11395932734012604,-0.22781585156917572
1772454506821318000,4.33931787109375,-0.013640977442264557,-0.07910040766000748,-0.1747230738401413
1772454506831336000,4.3493359375,-0.010455570183694363,-0.06599605828523636,-0.09994231164455414
1772454506841354000,4.35935400390625,-0.004083424806594849,-0.020174244418740273,-0.005693572107702494
1772454506851372000,4.3693720703125,0.007995075546205044,0.06157441437244415,0.09069661051034927
1772454506861388800,4.379388916015625,0.01768844947218895,0.12781734764575958,0.17107906937599182
1772454506871407000,4.389406982421875,0.023978037759661674,0.15400926768779755,0.21811848878860474
1772454506881425000,4.3994248046875,0.028311798349022865,0.14302480220794678,0.2282233089208603
1772454506891443000,4.40944287109375,0.03392680734395981,0.10825137048959732,0.2023746818304062
1772454506901460000,4.4194599609375,0.036496758460998535,0.07175914198160172,0.1408897489309311
1772454506911478000,4.42947802734375,0.03754471242427826,0.032585907727479935,0.05686993896961212
1772454506921495800,4.439495849609375,0.024702150374650955,-0.017721205949783325,-0.0424976572394371
1772454506931514000,4.44951416015625,0.00887817982584238,-0.05669496953487396,-0.12717419862747192
1772454506941532000,4.459531982421875,-0.00173744629137218,-0.0761759951710701,-0.19433672726154327
1772454506951549000,4.469548828125,-0.004517520312219858,-0.0888555720448494,-0.22601129114627838
1772454506961567000,4.47956689453125,-0.001945705502294004,-0.09054188430309296,-0.23416243493556976
1772454506971585000,4.4895849609375,0.007240868639200926,-0.09985921531915665,-0.20639072358608246
1772454506981602800,4.499602783203125,0.023309316486120224,-0.12657737731933594,-0.13908597826957703
1772454506991619800,4.509619873046875,0.04247555509209633,-0.08021547645330429,-0.04651130735874176
1772454507001638000,4.519637939453125,0.04855049028992653,0.038239531219005585,0.061224475502967834
1772454507011656000,4.529656005859375,0.043297141790390015,0.14748533070087433,0.1617947518825531
1772454507021674000,4.539674072265625,0.023207318037748337,0.20602746307849884,0.22705578804016113
1772454507031692000,4.549692138671875,0.008236091583967209,0.19711147248744965,0.25000157952308655
1772454507041709000,4.559708984375,0.003918042406439781,0.14660382270812988,0.23313391208648682
1772454507051726800,4.569726806640625,0.012693691067397594,0.0840887799859047,0.17541895806789398
1772454507061745000,4.579744873046875,0.02130209282040596,0.025676334276795387,0.09406178444623947
1772454507071763000,4.589762939453125,0.033601634204387665,-0.02087332308292389,0.009279784746468067
1772454507081780000,4.599780029296875,0.029636722058057785,-0.05464034155011177,-0.0660724937915802
1772454507091797800,4.6097978515625,0.023498667404055595,-0.06150543689727783,-0.11945316195487976
1772454507101816000,4.619816162109375,0.01152855809777975,-0.049006957560777664,-0.15420635044574738
1772454507111834000,4.629834228515625,0.00424348097294569,-0.04399994760751724,-0.1765281707048416
1772454507121852000,4.639851806640625,0.0019315907265990973,-0.05198969691991806,-0.17531989514827728
1772454507131869000,4.649868896484375,0.00028069718973711133,-0.05690882354974747,-0.15485429763793945
1772454507141887000,4.659886962890625,-0.007239536847919226,-0.061289191246032715,-0.12500585615634918
1772454507151904800,4.66990478515625,-0.01860111393034458,-0.05437881872057915,-0.08790908008813858
1772454507161922800,4.6799228515625,-0.03305275738239288,-0.06436487287282944,-0.045872416347265244
1772454507171939800,4.68993994140625,-0.03893674537539482,-0.03720356151461601,0.00881106872111559
1772454507181958000,4.6999580078125,-0.030550185590982437,0.026855582371354103,0.05738872289657593
1772454507191976000,4.709975830078125,-0.019063172861933708,0.08133107423782349,0.0881250649690628
1772454507201994000,4.719993896484375,-0.0035350800026208162,0.0976855456829071,0.09762988984584808
1772454507212010800,4.7300107421875,0.007861917838454247,0.08626937121152878,0.09556859731674194
1772454507222029000,4.740029052734375,0.016525980085134506,0.06608501076698303,0.08084052056074142
1772454507232046800,4.750046875,0.016039952635765076,0.05612318962812424,0.05535620078444481
1772454507242065000,4.76006494140625,0.005757754202932119,0.03665921092033386,0.021587850525975227
1772454507252083000,4.7700830078125,-0.007035539019852877,0.020623253658413887,-0.02178519032895565
1772454507262100000,4.780099853515625,-0.017014402896165848,-0.007807855494320393,-0.055749546736478806
1772454507272117800,4.79011767578125,-0.024384701624512672,-0.03362826630473137,-0.08879005908966064
1772454507282136000,4.800135986328125,-0.03057548590004444,-0.06677103787660599,-0.11433536559343338
1772454507292153900,4.81015380859375,-0.027708593755960464,-0.08816900849342346,-0.12577657401561737
1772454507302172000,4.820171875,-0.021105019375681877,-0.08039923757314682,-0.11129270493984222
1772454507312189000,4.83018896484375,-0.00948032084852457,-0.05979648977518082,-0.07037616521120071
1772454507322207000,4.84020703125,-0.002695385366678238,-0.02564091421663761,-0.012938435189425945
1772454507332224800,4.850224853515625,0.0049763829447329044,0.02918371744453907,0.04902346804738045
1772454507342243000,4.8602431640625,0.01684609241783619,0.06937135010957718,0.10189547389745712
1772454507352259800,4.870259765625,0.023574834689497948,0.08811121433973312,0.13633014261722565
1772454507362278000,4.88027783203125,0.03604162484407425,0.08566749840974808,0.1451641172170639
1772454507372296000,4.8902958984375,0.035282623022794724,0.06556223332881927,0.11674472689628601
1772454507382314000,4.90031396484375,0.026879284530878067,0.02528511732816696,0.07500234246253967
1772454507392331000,4.9103310546875,0.007273625582456589,-0.006503705866634846,0.023077622056007385
1772454507402349000,4.92034912109375,-0.007261907681822777,-0.026615630835294724,-0.022488530725240707
1772454507412366800,4.930366943359375,-0.01643223688006401,-0.026997795328497887,-0.05938343331217766
1772454507422385000,4.940385009765625,-0.02321850322186947,-0.011600730009377003,-0.08830109983682632
1772454507432403000,4.95040283203125,-0.022349514067173004,-0.00037950044497847557,-0.09700830280780792
1772454507442420000,4.960419921875,-0.022401712834835052,0.010488860309123993,-0.0850222185254097
1772454507452437800,4.970437744140625,-0.01739656738936901,0.027216706424951553,-0.056409478187561035
1772454507462456000,4.9804560546875,-0.016335297375917435,0.04270964488387108,-0.016931312158703804
1772454507472473900,4.990473876953125,-0.011692342348396778,0.04349154978990555,0.02436579391360283
1772454507482491100,5.0004912109375,-0.006286924239248037,0.029468676075339317,0.053281597793102264
1772454507492509000,5.010509033203125,0.008235558867454529,0.02124563418328762,0.07843675464391708
1772454507502527000,5.02052685546875,0.023211313411593437,0.016172844916582108,0.0873255804181099
1772454507512544800,5.030544677734375,0.029194369912147522,0.00911413598805666,0.08313164114952087
1772454507522563000,5.04056298828125,0.034146785736083984,-0.0023062974214553833,0.06823284924030304
1772454507532579800,5.050579833984375,0.03185087442398071,-0.009347163140773773,0.05113589018583298
1772454507542598000,5.060597900390625,0.020747356116771698,-0.021626997739076614,0.026401780545711517
1772454507552616000,5.070615966796875,0.0070741549134254456,-0.0297861248254776,-0.005421929527074099
1772454507562634000,5.080634033203125,-0.006421413738280535,-0.034144654870033264,-0.034994468092918396
1772454507572651000,5.090651123046875,-0.01679123006761074,-0.03634016588330269,-0.062809057533741
1772454507582669000,5.1006689453125,-0.017402691766619682,-0.03223463520407677,-0.06932394951581955
1772454507592686800,5.110686767578125,-0.013491573743522167,-0.0010452907299622893,-0.06509191542863846
1772454507602705000,5.120704833984375,-0.004436559975147247,0.02846280112862587,-0.044250551611185074
1772454507612723000,5.130722900390625,0.006650179624557495,0.03371348977088928,-0.01745808683335781
1772454507622740000,5.140739990234375,0.012457734905183315,0.02424115687608719,0.014788267202675343
1772454507632758000,5.150758056640625,0.013280651532113552,0.007875500246882439,0.040408674627542496
1772454507642776000,5.160776123046875,0.008441687561571598,-0.017618142068386078,0.05162351205945015
1772454507652793900,5.1707939453125,0.005826996639370918,-0.04531262069940567,0.04960057511925697
1772454507662811100,5.18081103515625,-0.0008604673203080893,-0.0409381128847599,0.03599608317017555
1772454507672829000,5.190828857421875,-0.009740511886775494,-0.028909945860505104,0.013406619429588318
1772454507682847000,5.200846923828125,-0.012836968526244164,-0.012807940132915974,-0.010208961553871632
1772454507692864800,5.21086474609375,-0.013756558299064636,0.016099341213703156,-0.018515095114707947
1772454507702882800,5.2208828125,-0.008681372739374638,0.042325884103775024,-0.015720106661319733
1772454507712899600,5.230899658203125,-0.004604605492204428,0.047203730791807175,-0.003340935567393899
1772454507722918000,5.24091796875,0.001883387565612793,0.0347617082297802,0.015439676120877266
1772454507732935700,5.250935791015625,0.006148706190288067,0.005453088786453009,0.02641429752111435
1772454507742953700,5.26095361328125,0.009162605740129948,-0.023509852588176727,0.03428979590535164
1772454507752970800,5.270970703125,0.010114152915775776,-0.03462295979261398,0.03489779680967331
1772454507762988500,5.280988525390625,-0.00008628641808172688,-0.03069266490638256,0.028087293729186058
1772454507773006600,5.291006591796875,-0.012284096330404282,-0.001181378262117505,0.014248444698750973
1772454507783025000,5.30102490234375,-0.022217687219381332,0.039134617894887924,-0.0046786414459347725
1772454507793041700,5.311041748046875,-0.03609621897339821,0.08155637979507446,-0.02046532742679119
1772454507803059500,5.3210595703125,-0.033787790685892105,0.09946027398109436,-0.030010096728801727
1772454507813077800,5.331077880859375,-0.025481924414634705,0.07046617567539215,-0.028085697442293167
1772454507823095800,5.341095703125,-0.004150802735239267,0.032590433955192566,-0.00926274061203003
1772454507833113600,5.351113525390625,0.012677712365984917,0.011982627213001251,0.027423635125160217
1772454507843130600,5.361130615234375,0.022423284128308296,0.006981476675719023,0.0640527531504631
1772454507853148700,5.371148681640625,0.015312377363443375,-0.0037081853952258825,0.08158540725708008
1772454507863166500,5.38116650390625,0.003629089565947652,-0.028477713465690613,0.08474471420049667
1772454507873184800,5.391184814453125,-0.005197691265493631,-0.045637261122465134,0.07336476445198059
1772454507883201500,5.401201416015625,-0.010908307507634163,-0.04855182394385338,0.04504896700382233
1772454507893219600,5.411219482421875,-0.02118145115673542,-0.031535554677248,0.010101902298629284
1772454507903237600,5.421237548828125,-0.03413160517811775,-0.001189900329336524,-0.02491760067641735
1772454507913255700,5.431255615234375,-0.04596962034702301,0.033310018479824066,-0.054416902363300323
1772454507923273500,5.4412734375,-0.052378252148628235,0.04306517913937569,-0.07156126946210861
1772454507933290800,5.451290771484375,-0.04801493138074875,0.020964138209819794,-0.07335730642080307
1772454507943308500,5.46130859375,-0.03449060022830963,-0.0023992417845875025,-0.0667758360505104
1772454507953326600,5.47132666015625,-0.010761034674942493,-0.026808444410562515,-0.04489370435476303
1772454507963344600,5.4813447265625,0.010453972034156322,-0.04735366627573967,-0.015024223364889622
1772454507973361700,5.491361572265625,0.01853480190038681,-0.04586176574230194,0.012969860807061195
1772454507983379700,5.501379638671875,0.022101840004324913,-0.005928729195147753,0.03581099584698677
1772454507993397800,5.511397705078125,0.007492537144571543,0.051902078092098236,0.04900083318352699
1772454508003415600,5.52141552734375,-0.009998838417232037,0.08748804032802582,0.0458708181977272
1772454508013433600,5.53143359375,-0.02267415262758732,0.07948283851146698,0.033375535160303116
1772454508023450600,5.54145068359375,-0.019837886095046997,0.05005145072937012,0.018393920734524727
1772454508033468700,5.55146875,-0.015873238444328308,0.009188704192638397,0.0032032502349466085
1772454508043486700,5.56148681640625,-0.0028399948496371508,-0.032716669142246246,-0.0101415840908885
1772454508053504800,5.5715048828125,0.0018279937794432044,-0.06005588173866272,-0.025192704051733017
1772454508063521500,5.581521484375,0.00854421965777874,-0.06908159703016281,-0.03223623335361481
1772454508073539800,5.591539794921875,0.010823619551956654,-0.05513888597488403,-0.034271951764822006
1772454508083557600,5.6015576171875,0.0079146483913064,-0.032217059284448624,-0.025910425931215286
1772454508093575700,5.61157568359375,-0.0059724049642682076,-0.007890147157013416,-0.018999790772795677
1772454508103592700,5.6215927734375,-0.022787870839238167,0.0057649449445307255,-0.01901843212544918
1772454508113610800,5.63161083984375,-0.034382741898298264,0.013080115430057049,-0.023321833461523056
1772454508123628500,5.641628662109375,-0.033844783902168274,0.005761216394603252,-0.029253758490085602
1772454508133646800,5.651646728515625,-0.02280358225107193,-0.0020335898734629154,-0.033661823719739914
1772454508143664600,5.66166455078125,-0.00207726564258337,-0.010271545499563217,-0.015974972397089005
1772454508153681700,5.671681640625,0.01649029366672039,0.0012088088551536202,0.007898669689893723
1772454508163699700,5.68169970703125,0.027814853936433792,0.02004588022828102,0.037755899131298065
1772454508173717800,5.6917177734375,0.029807962477207184,0.026667030528187752,0.05970807000994682
1772454508183735600,5.701735595703125,0.027330690994858742,0.033423203974962234,0.0681857094168663
1772454508193752800,5.7117529296875,0.016658606007695198,0.03239522501826286,0.06398617476224899
1772454508203770600,5.7217705078125,0.003614175831899047,0.02804654836654663,0.04832199215888977
1772454508213788700,5.73178857421875,-0.01452807616442442,0.024269653484225273,0.020848557353019714
1772454508223806700,5.741806640625,-0.025842515751719475,0.018428808078169823,-0.003970240708440542
1772454508233824800,5.75182470703125,-0.03759691119194031,0.011041466146707535,-0.030849792063236237
1772454508243841500,5.761841552734375,-0.04361032694578171,-0.015421300195157528,-0.055877648293972015
1772454508253859800,5.77185986328125,-0.03759371489286423,-0.0389532595872879,-0.07489767670631409
1772454508263877600,5.781877685546875,-0.02058916538953781,-0.06423384696245193,-0.08142135292291641
1772454508273895700,5.791895751953125,0.0013057478936389089,-0.07741649448871613,-0.07058841735124588
1772454508283912700,5.80191259765625,0.02107119746506214,-0.07409500330686569,-0.045756302773952484
1772454508293930800,5.8119306640625,0.02653839997947216,-0.0473073273897171,-0.007558317389339209
1772454508303948500,5.821948486328125,0.015430888161063194,-0.006010754499584436,0.022759107872843742
1772454508313966800,5.831966796875,-0.0018410432385280728,0.022763369604945183,0.05161552503705025
1772454508323984600,5.841984619140625,-0.010387926362454891,0.04794196039438248,0.06993035227060318
1772454508334001700,5.852001708984375,-0.015790680423378944,0.062430620193481445,0.07596054673194885
1772454508344019700,5.862019775390625,-0.011973305605351925,0.05615274980664253,0.06812658905982971
1772454508354037800,5.872037841796875,-0.005520999431610107,0.03617211803793907,0.05781083554029465
1772454508364055600,5.8820556640625,0.009587380103766918,0.009876333177089691,0.04306917265057564
1772454508374072800,5.89207275390625,0.03062129206955433,-0.006681338418275118,0.03695935010910034
1772454508384090600,5.902090576171875,0.047927044332027435,-0.0035989959724247456,0.036561474204063416
1772454508394108700,5.912108642578125,0.055198539048433304,0.011535482481122017,0.03014565259218216
1772454508404126700,5.922126708984375,0.04469529911875725,0.026569558307528496,0.02731923945248127
1772454508414144800,5.932144775390625,0.027884628623723984,0.03419551998376846,0.019754795357584953
1772454508424161800,5.942161865234375,0.0038567897863686085,0.0345582440495491,0.011455853469669819
1772454508434179800,5.952179931640625,-0.022357236593961716,0.014387461356818676,-0.0030250847339630127
1772454508444197600,5.96219775390625,-0.04115249589085579,-0.013701165094971657,-0.02167094126343727
1772454508454215700,5.972215576171875,-0.04538319259881973,-0.040281910449266434,-0.040408942848443985
1772454508464232700,5.982232666015625,-0.03778120130300522,-0.050877027213573456,-0.054003313183784485
1772454508474250800,5.992250732421875,-0.024923725053668022,-0.05800258368253708,-0.06590897589921951
1772454508484268500,6.0022685546875,-0.014394119381904602,-0.07303453236818314,-0.07140067964792252
1772454508494286800,6.012286865234375,-0.011886220425367355,-0.08997729420661926,-0.07174529135227203
1772454508504303600,6.0223037109375,-0.00765765318647027,-0.08344482630491257,-0.06135283783078194
1772454508514321700,6.03232177734375,-0.010668889619410038,-0.04722290486097336,-0.03752527013421059
1772454508524339700,6.042339599609375,-0.013040700927376747,-0.011721104383468628,-0.0068389978259801865
1772454508534357800,6.052357666015625,-0.014972824603319168,0.023076822981238365,0.02593332901597023
1772454508544375600,6.06237548828125,-0.009620935656130314,0.04876274615526199,0.05124481022357941
1772454508554392600,6.072392578125,0.001148355077020824,0.059905145317316055,0.0688384547829628
1772454508564410600,6.08241064453125,0.017733190208673477,0.046615440398454666,0.07819946110248566
1772454508574428700,6.0924287109375,0.030176544561982155,0.016883641481399536,0.07382708787918091
1772454508584446700,6.10244677734375,0.03921797499060631,-0.009343966841697693,0.05949768051505089
1772454508594463500,6.11246337890625,0.039196938276290894,-0.027545606717467308,0.04248514398932457
1772454508604481800,6.122481689453125,0.029562951996922493,-0.03635561093688011,0.01955985277891159
1772454508614499600,6.13249951171875,0.010800981894135475,-0.01739976368844509,-0.005524461157619953
1772454508624517600,6.142517578125,-0.015686551108956337,0.013236976228654385,-0.03724830225110054
1772454508634535700,6.15253564453125,-0.03627997636795044,0.024766333401203156,-0.061940863728523254
1772454508644552700,6.162552734375,-0.04782770946621895,0.020330039784312248,-0.0750497430562973
1772454508654570500,6.172570556640625,-0.04712143912911415,0.004760134033858776,-0.07838109135627747
1772454508664588800,6.1825888671875,-0.032996565103530884,-0.02237694524228573,-0.0714065358042717
1772454508674606600,6.192606689453125,-0.011982094496488571,-0.047929707914590836,-0.049913495779037476
1772454508684623600,6.20262353515625,0.013935789465904236,-0.05726781487464905,-0.020420586690306664
1772454508694642200,6.21264208984375,0.029401831328868866,-0.04062945023179054,0.012509133666753769
1772454508704660000,6.222659912109375,0.028414331376552582,-0.01792413927614689,0.0380198210477829
1772454508714678000,6.232677978515625,0.027106452733278275,0.007502391003072262,0.0525905080139637
1772454508724695000,6.242695068359375,0.016394419595599174,0.03575586527585983,0.05932750552892685
1772454508734713000,6.252713134765625,0.005401689559221268,0.05223950371146202,0.05817808583378792
1772454508744731000,6.26273095703125,-0.0021113541442900896,0.0610756054520607,0.046665240079164505
1772454508754749200,6.272749267578125,-0.014791728928685188,0.04679999500513077,0.024473385885357857
1772454508764767200,6.282767333984375,-0.02756558172404766,0.011540542356669903,0.0035057852510362864
1772454508774784000,6.292783935546875,-0.040761012583971024,-0.027351196855306625,-0.023329291492700577
1772454508784802000,6.302802001953125,-0.04947327822446823,-0.06827332824468613,-0.04316265136003494
1772454508794820000,6.312820068359375,-0.053943391889333725,-0.10199587047100067,-0.06253501772880554
1772454508804838000,6.322837890625,-0.05347361043095589,-0.11559423804283142,-0.07655230164527893
1772454508814855200,6.332855224609375,-0.05444752797484398,-0.11249032616615295,-0.08843532204627991
1772454508824873000,6.342873046875,-0.05525366961956024,-0.09831006079912186,-0.09845786541700363
1772454508834891000,6.35289111328125,-0.052684515714645386,-0.07468089461326599,-0.10377033799886703
1772454508844909000,6.362908935546875,-0.03990134224295616,-0.04905063286423683,-0.09664051979780197
1772454508854927000,6.372927001953125,-0.020379306748509407,-0.0111045828089118,-0.07547824829816818
1772454508864943900,6.38294384765625,-0.00398728484287858,0.030193587765097618,-0.04103265330195427
1772454508874962200,6.392962158203125,0.0062645538710057735,0.07490726560354233,0.007128216791898012
1772454508884980000,6.40297998046875,0.014073207974433899,0.11888989806175232,0.056772202253341675
1772454508894998000,6.412998046875,0.017314808443188667,0.12698325514793396,0.09915880858898163
1772454508905015000,6.42301513671875,0.01871163584291935,0.09850260615348816,0.1230044886469841
1772454508915033000,6.433033203125,0.02286403626203537,0.05008367449045181,0.12709829211235046
1772454508925051000,6.44305078125,0.019753199070692062,0.007042197044938803,0.10184407234191895
1772454508935069200,6.453069091796875,0.009018261916935444,-0.020795559510588646,0.05120939016342163
1772454508945087000,6.4630869140625,-0.005469067487865686,-0.04743196442723274,-0.012563995085656643
1772454508955104000,6.47310400390625,-0.024285100400447845,-0.06712870299816132,-0.0718797817826271
1772454508965122000,6.4831220703125,-0.037465084344148636,-0.06952661275863647,-0.12064678966999054
1772454508975140000,6.49314013671875,-0.041242510080337524,-0.06244659796357155,-0.14741209149360657
1772454508985158000,6.503157958984375,-0.04457838833332062,-0.051891427487134933,-0.15053437650203705
1772454508995175200,6.513175048828125,-0.0504317469894886,-0.04260125756263733,-0.13611656427383423
1772454509005193000,6.52319287109375,-0.05396123602986336,-0.03371135890483856,-0.11280325055122375
1772454509015211000,6.5332109375,-0.057187654078006744,-0.036323919892311096,-0.08475936204195023
1772454509025229000,6.54322900390625,-0.05843641236424446,-0.050451721996068954,-0.05855438858270645
1772454509035246000,6.55324609375,-0.05409705638885498,-0.06328895688056946,-0.02978798933327198
1772454509045264100,6.56326416015625,-0.04310086369514465,-0.0639645978808403,0.007265902124345303
1772454509055282200,6.5732822265625,-0.02053004316985607,-0.03311480954289436,0.05693545565009117
1772454509065300000,6.583300048828125,0.00430180411785841,0.040579915046691895,0.11141014844179153
1772454509075318000,6.593318115234375,0.022546587511897087,0.1222502812743187,0.16629096865653992
1772454509085335000,6.6033349609375,0.03929467499256134,0.17248095571994781,0.20456884801387787
1772454509095353000,6.61335302734375,0.05902976542711258,0.18454428017139435,0.22578226029872894
1772454509105371000,6.623370849609375,0.08231351524591446,0.16667047142982483,0.23029685020446777
1772454509115389200,6.63338916015625,0.09831804782152176,0.12176105380058289,0.21266485750675201
1772454509125406000,6.643406005859375,0.10059504956007004,0.07714485377073288,0.17681391537189484
1772454509135424300,6.65342431640625,0.09079594910144806,0.034930553287267685,0.12528708577156067
1772454509145442000,6.663442138671875,0.06735001504421234,-0.003058107802644372,0.05266907066106796
1772454509155460000,6.673460205078125,0.0364629365503788,-0.03502323105931282,-0.023206252604722977
1772454509165478000,6.683477783203125,0.014543788507580757,-0.04532726854085922,-0.09401757270097733
1772454509175495200,6.6934951171875,-0.005150021053850651,-0.04290086030960083,-0.15741465985774994
1772454509185513000,6.703512939453125,-0.02293247915804386,-0.06538140028715134,-0.20478136837482452
1772454509195531000,6.713531005859375,-0.02748941443860531,-0.10423612594604492,-0.21019211411476135
1772454509205549000,6.723549072265625,-0.014005297794938087,-0.0944969430565834,-0.17131848633289337
1772454509215566000,6.733566162109375,0.00586774293333292,-0.047151267528533936,-0.0903480052947998
1772454509225584000,6.743584228515625,0.020658407360315323,-0.00013369068619795144,0.007555121555924416
1772454509235602200,6.753602294921875,0.0279123242944479,0.03916338086128235,0.0967760756611824
1772454509245620000,6.763619873046875,0.036490101367235184,0.08067353814840317,0.15891854465007782
1772454509255637200,6.77363720703125,0.03147110715508461,0.10091036558151245,0.18748414516448975
1772454509265655000,6.783655029296875,0.021281586959958076,0.10359616577625275,0.1823197454214096
1772454509275673000,6.793673095703125,0.0021140172611922026,0.09703786671161652,0.13695599138736725
1772454509285691100,6.803691162109375,-0.018253572285175323,0.06954259425401688,0.06890955567359924
1772454509295709200,6.813709228515625,-0.02997148036956787,0.029221801087260246,0.001014398061670363
1772454509305726000,6.823725830078125,-0.028620991855859756,-0.007078948430716991,-0.058036670088768005
1772454509315744300,6.833744140625,-0.020899422466754913,-0.027783693745732307,-0.09372036904096603
1772454509325762000,6.843761962890625,-0.006187588442116976,-0.03846163675189018,-0.11100055277347565
1772454509335780000,6.853780029296875,0.005107942968606949,-0.05168236792087555,-0.10988122969865799
1772454509345797000,6.863797119140625,0.00785286258906126,-0.0614796057343483,-0.08755781501531601
1772454509355815200,6.873815185546875,0.0084877610206604,-0.08234893530607224,-0.049107626080513
1772454509365833000,6.8838330078125,0.01104679238051176,-0.0715828388929367,0.0014682007022202015
1772454509375851300,6.893851318359375,0.0038101845420897007,-0.0157731045037508,0.047926511615514755
1772454509385869000,6.903869140625,0.00012117382721044123,0.041429199278354645,0.08409543335437775
1772454509395885800,6.9138857421875,0.006940996740013361,0.0773637667298317,0.11301843076944351
1772454509405904100,6.923904052734375,0.022940736263990402,0.11074888706207275,0.1297774314880371
1772454509415922200,6.933922119140625,0.04356372356414795,0.1392897218465805,0.13831312954425812
1772454509425940000,6.94393994140625,0.06028784066438675,0.1386321783065796,0.14385810494422913
1772454509435957000,6.95395703125,0.057981010526418686,0.11755912005901337,0.1286032497882843
1772454509445975000,6.96397509765625,0.04495042935013771,0.08781401067972183,0.1043330654501915
1772454509455992800,6.973992919921875,0.030013026669621468,0.047274839133024216,0.07071171700954437
1772454509466011100,6.98401123046875,0.013004481792449951,-0.00845606904476881,0.029684925451874733
1772454509476029200,6.994029296875,-0.00905847642570734,-0.06290066987276077,-0.019629094749689102
1772454509486046000,7.0040458984375,-0.032523587346076965,-0.11230549961328506,-0.08325094729661942
1772454509496064000,7.01406396484375,-0.05356069654226303,-0.13076679408550262,-0.14909841120243073
1772454509506082000,7.02408203125,-0.06500642746686935,-0.13257642090320587,-0.20163272321224213
1772454509516100000,7.03410009765625,-0.059004995971918106,-0.13803909718990326,-0.22479821741580963
1772454509526117000,7.0441171875,-0.024024909362196922,-0.11182746291160583,-0.19450104236602783
1772454509536135000,7.054135009765625,0.020213657990098,-0.03943555802106857,-0.11686722934246063
1772454509546153000,7.064153076171875,0.05137051269412041,0.030174680054187775,-0.014038320630788803
1772454509556171000,7.0741708984375,0.06270971894264221,0.062241002917289734,0.08861881494522095
1772454509566188000,7.08418798828125,0.05619269981980324,0.0827886238694191,0.16707341372966766
1772454509576206000,7.0942060546875,0.04333602264523506,0.07917604595422745,0.21126563847064972
1772454509586224000,7.10422412109375,0.02088397555053234,0.06767598539590836,0.20308999717235565
1772454509596242000,7.114241943359375,0.001457814360037446,0.037467215210199356,0.14948350191116333
1772454509606260000,7.124260009765625,-0.013153619132936,0.009943976998329163,0.06442799419164658
1772454509616277000,7.134277099609375,-0.01841282844543457,-0.0029646309558302164,-0.02522439695894718
1772454509626295000,7.144294921875,-0.02533092349767685,0.008130097761750221,-0.1043090969324112
1772454509636313000,7.15431298828125,-0.02570056915283203,0.00954104121774435,-0.15300047397613525
1772454509646331100,7.1643310546875,-0.019457321614027023,-0.02261796034872532,-0.1610402911901474
1772454509656348000,7.174347900390625,-0.002514556748792529,-0.03424505516886711,-0.12414751201868057
1772454509666366200,7.1843662109375,0.01792706921696663,0.0019590212032198906,-0.05559482052922249
1772454509676384000,7.194384033203125,0.031687889248132706,0.05026290565729141,0.027590615674853325
1772454509686402000,7.204402099609375,0.03789278864860535,0.08959699422121048,0.09642347693443298
1772454509696420000,7.214420166015625,0.029152825474739075,0.12136557698249817,0.14217498898506165
1772454509706437000,7.22443701171875,0.024281904101371765,0.1251179724931717,0.16050365567207336
1772454509716455200,7.234455078125,0.025143703445792198,0.10932941734790802,0.15677416324615479
1772454509726473200,7.24447314453125,0.027157317847013474,0.07693392783403397,0.12769217789173126
1772454509736491300,7.2544912109375,0.02243819646537304,0.021196098998188972,0.08037153631448746
1772454509746508000,7.264508056640625,0.012076903134584427,-0.03585387021303177,0.023991884663701057
1772454509756526300,7.2745263671875,-0.007027016952633858,-0.0675305724143982,-0.03351401910185814
1772454509766544100,7.284544189453125,-0.03123967908322811,-0.07692380994558334,-0.09363860636949539
1772454509776562200,7.294562255859375,-0.052267998456954956,-0.07280363142490387,-0.14285169541835785
1772454509786579200,7.3045791015625,-0.06802299618721008,-0.07039506733417511,-0.1736772507429123
1772454509796597200,7.31459716796875,-0.07046297937631607,-0.08847527205944061,-0.18754513561725616
1772454509806615000,7.324614990234375,-0.05826330557465553,-0.1008179560303688,-0.16820551455020905
1772454509816633300,7.33463330078125,-0.035053323954343796,-0.0691756084561348,-0.11865607649087906
1772454509826651100,7.344651123046875,-0.008867527358233929,-0.020981714129447937,-0.04814382642507553
1772454509836668200,7.354668212890625,0.008952748961746693,0.013272395357489586,0.02232341468334198
1772454509846686200,7.364686279296875,0.021675467491149902,0.041908834129571915,0.08615165948867798
1772454509856704300,7.374704345703125,0.028654813766479492,0.07613284885883331,0.12558722496032715
1772454509866722000,7.38472216796875,0.027940021827816963,0.09440160542726517,0.1394452452659607
1772454509876739300,7.3947392578125,0.01780616119503975,0.08956823498010635,0.12143907696008682
1772454509886757000,7.404757080078125,0.004942294210195541,0.06090862303972244,0.08629760146141052
1772454509896775200,7.414775146484375,-0.007383081596344709,0.025522936135530472,0.04705486074090004
1772454509906793200,7.424793212890625,-0.012645487673580647,-0.005927397403866053,-0.007601194549351931
1772454509916810200,7.434810302734375,-0.009815612807869911,-0.04014981538057327,-0.054181747138500214
1772454509926828000,7.444828125,-0.00013608753215521574,-0.0597381666302681,-0.08959300071001053
1772454509936846300,7.454846435546875,0.007950334809720516,-0.0700717642903328,-0.11235503852367401
1772454509946864000,7.464864013671875,0.01053173653781414,-0.06671857833862305,-0.11771384626626968
1772454509956882200,7.474882080078125,0.011724034324288368,-0.06198294460773468,-0.10209573805332184
1772454509966899200,7.484899169921875,0.006426207721233368,-0.03760915994644165,-0.07162944227457047
1772454509976917200,7.494917236328125,0.00031372037483379245,-0.026819363236427307,-0.03949334844946861
1772454509986935000,7.50493505859375,-0.006733802612870932,-0.03572817146778107,-0.003692739177495241
1772454509996953300,7.514953369140625,-0.007105313707143068,-0.013967480510473251,0.032037828117609024
1772454510006970000,7.52497021484375,-0.0057620154693722725,0.03003033623099327,0.06383703649044037
1772454510016988200,7.53498828125,-0.006500776391476393,0.06012991443276405,0.08080989122390747
1772454510027006200,7.545006103515625,-0.0029862024821341038,0.07622126489877701,0.07765431702136993
1772454510037024300,7.555024169921875,0.0009432916413061321,0.08143787086009979,0.06584985554218292
1772454510047042000,7.5650419921875,0.0049521480686962605,0.06437738984823227,0.04974784702062607
1772454510057059300,7.575059326171875,0.01007793378084898,0.03365276753902435,0.024770326912403107
1772454510067077000,7.5850771484375,0.012371448799967766,0.000984836951829493,-0.009720537811517715
1772454510077095200,7.59509521484375,0.016866598278284073,-0.03313504904508591,-0.03832661733031273
1772454510087113200,7.60511328125,0.013097425922751427,-0.06679341197013855,-0.06485862284898758
1772454510097130200,7.615130126953125,0.004914064891636372,-0.07911825180053711,-0.08302298188209534
1772454510107148300,7.625148193359375,-0.013771738857030869,-0.06433584541082382,-0.08713410049676895
1772454510117166300,7.635166259765625,-0.03401362523436546,-0.03526477888226509,-0.08602436631917953
1772454510127184100,7.64518408203125,-0.04735127091407776,-0.01372300274670124,-0.07458315789699554
1772454510137201200,7.655201171875,-0.04851853474974632,-0.011420167051255703,-0.04571955278515816
1772454510147219200,7.66521923828125,-0.03361894562840462,-0.0034940673504024744,-0.005006476305425167
1772454510157237200,7.6752373046875,-0.013847106136381626,0.015243668109178543,0.033670078963041306
1772454510167255000,7.685255126953125,0.01593848690390587,0.024173246696591377,0.06772365421056747
1772454510177273300,7.6952734375,0.046478018164634705,0.026823891326785088,0.08791787177324295
1772454510187290000,7.7052900390625,0.05934881046414375,0.032345954328775406,0.09354086965322495
1772454510197308200,7.71530810546875,0.0515713170170784,0.04399968311190605,0.08908753097057343
1772454510207326200,7.725326171875,0.0395498052239418,0.07163424044847488,0.07530247420072556
1772454510217344300,7.73534423828125,0.014942730776965618,0.10746041685342789,0.04947700351476669
1772454510227361300,7.745361328125,-0.009339173324406147,0.12799072265625,0.02184191532433033
1772454510237379000,7.755379150390625,-0.03563256189227104,0.11561581492424011,-0.004027232062071562
1772454510247397000,7.765397216796875,-0.0489177405834198,0.06276404857635498,-0.028364796191453934
1772454510257415200,7.775415283203125,-0.0487813875079155,-0.012761601246893406,-0.05112656578421593
1772454510267433200,7.78543310546875,-0.039025962352752686,-0.09082231670618057,-0.06582295894622803
1772454510277450000,7.795449951171875,-0.01768312230706215,-0.14380669593811035,-0.08557908236980438
1772454510287468300,7.80546826171875,-0.00583605095744133,-0.16496525704860687,-0.0968162938952446
1772454510297486000,7.815486083984375,0.0028213527984917164,-0.14690501987934113,-0.10451575368642807
1772454510307504000,7.825504150390625,0.008934373036026955,-0.08431887626647949,-0.10069944709539413
1772454510317521200,7.835521240234375,0.00987287051975727,-0.013763482682406902,-0.06903712451457977
1772454510327539200,7.845539306640625,0.011537079699337482,0.05175267532467842,-0.021642178297042847
1772454510337557000,7.855556884765625,0.008858206681907177,0.09590868651866913,0.03254409506917
1772454510347575300,7.8655751953125,0.015661250799894333,0.11552073806524277,0.08743078261613846
1772454510357592000,7.875592041015625,0.01871376670897007,0.09851326048374176,0.12204627692699432
1772454510367610000,7.885610107421875,0.02551707811653614,0.05782921239733696,0.1246897354722023
1772454510377628200,7.895628173828125,0.027539748698472977,0.025584721937775612,0.1072593480348587
1772454510387646200,7.905646240234375,0.030666299164295197,0.008656338788568974,0.07084354758262634
1772454510397664000,7.9156640625,0.02389201708137989,-0.0067633637227118015,0.023871244862675667
1772454510407681300,7.925681396484375,0.007439540233463049,-0.02082804962992668,-0.021154288202524185
1772454510417699000,7.935698974609375,-0.012001534923911095,-0.0381375327706337,-0.05140407010912895
1772454510427717000,7.945717041015625,-0.02118038572371006,-0.05458148568868637,-0.06768210977315903
1772454510437735200,7.955735107421875,-0.02413729391992092,-0.062365904450416565,-0.07074660807847977
1772454510447752200,7.965752197265625,-0.019518308341503143,-0.0424790158867836,-0.06362291425466537
1772454510457770000,7.97577001953125,-0.010873952880501747,-0.015419170260429382,-0.04842505604028702
1772454510467788300,7.985788330078125,-0.00022903185163158923,0.0031241541728377342,-0.01335628516972065
1772454510477806000,7.99580615234375,0.011543205007910728,0.03501550853252411,0.031200263649225235
1772454510487823400,8.0058232421875,0.021331122145056725,0.06342664361000061,0.07746469974517822
1772454510497841200,8.015841064453125,0.01889779046177864,0.06346818804740906,0.10230293869972229
1772454510507859200,8.025859130859375,0.014128335751593113,0.056534647941589355,0.104063019156456
1772454510517877000,8.035876953125,0.005589442327618599,0.043845485895872116,0.09448469430208206
1772454510527895300,8.045895263671875,0.0020730046089738607,0.03261173889040947,0.07060332596302032
1772454510537912000,8.055912109375,-0.004279433749616146,0.018618425354361534,0.033780600875616074
1772454510547930400,8.065930419921875,-0.002942793071269989,-0.001918807509355247,-0.0037087181117385626
1772454510557948200,8.0759482421875,0.0007070692372508347,-0.013587181456387043,-0.03743152692914009
1772454510567966200,8.08596630859375,-0.0026791400741785765,-0.00800173357129097,-0.06476807594299316
1772454510577983200,8.095983154296874,-0.00977433379739523,-0.01990872621536255,-0.07460925728082657
1772454510588001300,8.106001220703124,-0.017842113971710205,-0.023120231926441193,-0.06039676442742348
1772454510598019000,8.11601904296875,-0.028553348034620285,0.00019228023302275687,-0.03891624137759209
1772454510608037000,8.126037109375,-0.03762593865394592,0.02178119495511055,-0.008133826777338982
1772454510618054100,8.13605419921875,-0.03598516434431076,0.028071848675608635,0.008717591874301434
1772454510628072200,8.146072265625,-0.026701651513576508,0.007255249656736851,0.02214711345732212
1772454510638090200,8.15609033203125,-0.009982060641050339,-0.011777829378843307,0.02900448627769947
1772454510648108300,8.1661083984375,0.013030048459768295,-0.0022383867762982845,0.038296520709991455
1772454510658126000,8.1761259765625,0.034513767808675766,0.01740003004670143,0.04661703482270241
1772454510668143400,8.186143310546875,0.041551969945430756,0.0303800106048584,0.05495699122548103
1772454510678161200,8.1961611328125,0.03940439596772194,0.03702300041913986,0.059050269424915314
1772454510688179200,8.20617919921875,0.03605866804718971,0.036922331899404526,0.05246107652783394
1772454510698196500,8.216196533203124,0.028084099292755127,0.02219798043370247,0.03867655619978905
1772454510708213200,8.226213134765626,0.026617228984832764,0.0005526058957912028,0.018077271059155464
1772454510718231600,8.2362314453125,0.023306388407945633,-0.01377866230905056,-0.0011611381778493524
1772454510728249300,8.246249267578126,0.020869862288236618,-0.015781892463564873,-0.013861486688256264
1772454510738267400,8.256267333984376,0.01181937474757433,-0.013618074357509613,-0.01997637189924717
1772454510748285400,8.266285400390625,-0.0007523429812863469,-0.008705074898898602,-0.02768116258084774
1772454510758302500,8.276302490234375,-0.014937138184905052,0.005200088489800692,-0.039100531488657
1772454510768320300,8.2863203125,-0.02515888214111328,0.015430355444550514,-0.05416656658053398
1772454510778338600,8.296338623046875,-0.026751985773444176,0.015358982607722282,-0.0634508803486824
1772454510788356600,8.306356689453125,-0.025061942636966705,0.007269630674272776,-0.0709330290555954
1772454510798373400,8.316373291015625,-0.019999274984002113,-0.01552036963403225,-0.06650818884372711
1772454510808391400,8.326391357421874,-0.01113361120223999,-0.035049594938755035,-0.039742618799209595
1772454510818409500,8.336409423828124,0.0060946443118155,-0.01546550914645195,-0.0014271880500018597
1772454510828427300,8.34642724609375,0.01732492819428444,0.003930293023586273,0.03611139953136444
1772454510838444500,8.356444580078126,0.025226792320609093,0.016813067719340324,0.062124356627464294
1772454510848462300,8.36646240234375,0.029617812484502792,0.0264744833111763,0.08046527951955795
1772454510858480400,8.37648046875,0.027177026495337486,0.03845977410674095,0.07836324721574783
1772454510868498400,8.38649853515625,0.02016598917543888,0.035887427628040314,0.07121212780475616
1772454510878516500,8.3965166015625,0.012777580879628658,0.020539630204439163,0.051893025636672974
1772454510888533200,8.406533203125,0.0032706281635910273,0.014319018460810184,0.015870044007897377
1772454510898551600,8.416551513671875,-0.009882990270853043,-0.01008113007992506,-0.01763465441763401
1772454510908569300,8.4265693359375,-0.01834731549024582,-0.03226259723305702,-0.04566122964024544
1772454510918587400,8.43658740234375,-0.02846706099808216,-0.043895553797483444,-0.061820756644010544
1772454510928604400,8.4466044921875,-0.03572710603475571,-0.032469525933265686,-0.07075592875480652
1772454510938622500,8.45662255859375,-0.042089395225048065,-0.03002581000328064,-0.07155834138393402
1772454510948640300,8.46664013671875,-0.038186002522706985,-0.030360035598278046,-0.05552584305405617
1772454510958658600,8.476658447265624,-0.02532106824219227,-0.014640994369983673,-0.021936457604169846
1772454510968675300,8.48667529296875,-0.006586796138435602,0.010342385619878769,0.016344884410500526
1772454510978693400,8.496693359375,0.01230407040566206,0.03771115839481354,0.05482196807861328
1772454510988711400,8.50671142578125,0.02365020103752613,0.06564212590456009,0.08632530272006989
1772454510998729500,8.5167294921875,0.030843399465084076,0.08657936751842499,0.10171438008546829
1772454511008747300,8.526747314453125,0.021620873361825943,0.08078192919492722,0.0960724726319313
1772454511018764500,8.5367646484375,0.013319533318281174,0.038481079041957855,0.07281162589788437
1772454511028782300,8.5467822265625,0.0065047708339989185,-0.013998373411595821,0.04105395823717117
1772454511038800400,8.55680029296875,0.0010013486025854945,-0.0558968223631382,-0.003379551460966468
1772454511048818400,8.566818359375,-0.01218502689152956,-0.06593986600637436,-0.05103335529565811
1772454511058835500,8.57683544921875,-0.02424328774213791,-0.05632505938410759,-0.09332728385925293
1772454511068853500,8.586853515625,-0.03562244400382042,-0.03301573917269707,-0.1152576133608818
1772454511078871600,8.59687158203125,-0.047568053007125854,-0.01420689933001995,-0.12021216005086899
1772454511088889300,8.606889404296876,-0.047635696828365326,0.0010394317796453834,-0.10501004010438919
1772454511098906600,8.61690673828125,-0.0406813845038414,0.016525447368621826,-0.0771443173289299
1772454511108924400,8.62692431640625,-0.012036156840622425,0.017772339284420013,-0.03471670299768448
1772454511118942500,8.6369423828125,0.01744690164923668,0.022720757871866226,0.01239222101867199
1772454511128960300,8.646960205078125,0.043477434664964676,0.030831681564450264,0.05972777679562569
1772454511138978600,8.656978515625,0.058815911412239075,0.027822576463222504,0.09381570667028427
1772454511148995300,8.666995361328125,0.0527670755982399,0.015261776745319366,0.09996494650840759
1772454511159013600,8.677013671875,0.03205753490328789,0.006644853390753269,0.08545923978090286
1772454511169031400,8.687031494140625,0.009587113745510578,-0.001719603082165122,0.055266983807086945
1772454511179049500,8.697049560546875,-0.012502209283411503,0.002531334524974227,0.0072901370003819466
1772454511189066500,8.70706640625,-0.01817421056330204,0.0051745218224823475,-0.03735296428203583
1772454511199084500,8.71708447265625,-0.0196091216057539,0.007517571095377207,-0.07047762721776962
1772454511209102300,8.727102294921876,-0.01558481901884079,0.01357333268970251,-0.08416041731834412
1772454511219120400,8.737120361328126,-0.01173628494143486,0.009710684418678284,-0.07996807247400284
1772454511229138400,8.747138427734376,-0.009120527654886246,-0.001327053178101778,-0.062001317739486694
1772454511239155500,8.757155517578125,-0.005923136603087187,-0.018281802535057068,-0.03771994635462761
1772454511249173500,8.767173583984375,0.0030330740846693516,-0.030068686231970787,-0.004345746245235205
1772454511259191600,8.777191650390625,0.013964018784463406,-0.026283802464604378,0.012813000939786434
1772454511269209300,8.787209228515625,0.021953236311674118,-0.01709110289812088,0.030104106292128563
1772454511279226600,8.7972265625,0.02329600229859352,-0.005091697443276644,0.038477618247270584
1772454511289244400,8.807244384765625,0.018336130306124687,0.005046690348535776,0.03104553371667862
1772454511299262500,8.817262451171874,0.011837750673294067,0.0033068470656871796,0.02101154252886772
1772454511309280500,8.827280517578124,0.009862218052148819,-0.003591539105400443,0.012329903431236744
1772454511319297300,8.83729736328125,0.00472498033195734,0.008126103319227695,0.003858121344819665
1772454511329315300,8.8473154296875,-0.0014966964954510331,0.01685754396021366,0.005821137689054012
1772454511339333600,8.857333740234376,-0.009425725787878036,0.02840181440114975,0.009986854158341885
1772454511349351400,8.867351318359376,-0.013545103371143341,0.0495355948805809,0.011975170113146305
1772454511359368400,8.877368408203125,-0.014971492812037468,0.050096191465854645,0.011175689287483692
1772454511369386500,8.887386474609375,-0.01582636684179306,0.04109204187989235,0.010351973585784435
1772454511379404500,8.897404541015625,-0.0068025123327970505,0.026428410783410072,0.0009214537567459047
1772454511389422300,8.90742236328125,-0.0000900148443179205,0.018224012106657028,-0.00785286258906126
1772454511399440600,8.917440673828125,-0.00032410668791271746,0.018560901284217834,-0.015446600504219532
1772454511409457400,8.92745751953125,-0.003111903788521886,0.010158628225326538,-0.022113557904958725
1772454511419475200,8.93747509765625,-0.00706856232136488,0.003442934714257717,-0.023066703230142593
1772454511429493500,8.947493408203124,-0.00920361839234829,-0.005311408545821905,-0.018140122294425964
1772454511439511600,8.957511474609374,-0.008056861348450184,-0.014201839454472065,-0.013967746868729591
1772454511449528600,8.967528564453126,-0.0030565098859369755,-0.013678527437150478,-0.010819890536367893
1772454511459546400,8.97754638671875,0.002373675350099802,-0.007282147649675608,-0.008800415322184563
1772454511469564400,8.987564453125,0.0032836776226758957,-0.0008700547041371465,-0.0023723437916487455
1772454511479582500,8.99758251953125,0.005964149255305529,0.007459514308720827,0.011020959354937077
1772454511489600500,9.0076005859375,0.0028245486319065094,0.01979128085076809,0.026868099346756935
1772454511499617300,9.0176171875,-0.0007771103992126882,0.025289909914135933,0.03706001862883568
1772454511509635300,9.02763525390625,-0.002007490722462535,0.02742842771112919,0.038847532123327255
1772454511519653400,9.0376533203125,0.003067428944632411,0.02907159924507141,0.03916817530989647
1772454511529671400,9.04767138671875,0.009552492760121822,0.02581029199063778,0.03189241886138916
1772454511539688400,9.0576884765625,0.014194115996360779,0.017017066478729248,0.026140257716178894
1772454511549706500,9.06770654296875,0.013834322802722454,0.005120726302266121,0.021283717826008797
1772454511559724300,9.077724365234374,0.004625378176569939,-0.005032309330999851,0.008672583848237991
1772454511569742300,9.087742431640624,-0.006938333623111248,-0.006052566226571798,-0.009724000468850136
1772454511579759400,9.09775927734375,-0.017008012160658836,0.0013912353897467256,-0.03189614787697792
1772454511589777400,9.10777734375,-0.02443556860089302,0.0012303803814575076,-0.04730892553925514
1772454511599795500,9.11779541015625,-0.025137310847640038,-0.0020064255222678185,-0.05086211487650871
1772454511609813500,9.1278134765625,-0.0231681689620018,-0.012316587381064892,-0.04681943729519844
1772454511619831300,9.137831298828125,-0.020142817869782448,-0.01997504010796547,-0.031923044472932816
1772454511629848600,9.1478486328125,-0.014276141300797462,-0.017135577276349068,-0.01284735556691885
1772454511639866400,9.157866455078125,-0.005891178734600544,-0.014597318135201931,-0.0006958839949220419
1772454511649884400,9.167884521484375,0.003165433183312416,-0.015840215608477592,0.007123423274606466
1772454511659902200,9.177902099609375,0.009443302638828754,-0.01654382236301899,0.014316088519990444
1772454511669919500,9.18791943359375,0.008539426140487194,-0.001344896387308836,0.013831127434968948
1772454511679937300,9.197937255859374,-0.00002956108801299706,0.022538332268595695,0.009534116834402084
1772454511689955600,9.20795556640625,-0.01649428717792034,0.05139048770070076,0.0015755260828882456
1772454511699974000,9.217973876953126,-0.032518792897462845,0.042980488389730453,-0.0099021652713418
1772454511709990700,9.22799072265625,-0.0376640222966671,0.04381698742508888,-0.017945444211363792
1772454511720009000,9.238009033203125,-0.03220800310373306,0.05579482391476631,-0.025541312992572784
1772454511730026800,9.24802685546875,-0.030839405953884125,0.04819895327091217,-0.04369315132498741
1772454511740044800,9.258044921875,-0.032279111444950104,0.033783264458179474,-0.05483555048704147
1772454511750062600,9.2680625,-0.04434935376048088,0.04041799530386925,-0.06897959858179092
1772454511760080000,9.278079833984375,-0.06999213248491287,0.005949501879513264,-0.07393121719360352
1772454511770097700,9.28809765625,-0.11500381678342819,-0.007821704261004925,-0.09470147639513016
1772454511780116000,9.298115966796875,-0.16620121896266937,-0.026759974658489227,-0.11794820427894592
1772454511790133800,9.3081337890625,-0.19928939640522003,-0.07108083367347717,-0.14209508895874023
1772454511800150800,9.31815087890625,-0.2135399729013443,-0.09062337875366211,-0.1695898324251175
1772454511810168800,9.3281689453125,-0.20346923172473907,-0.06756972521543503,-0.1869640201330185
1772454511820187000,9.338186767578126,-0.1888815015554428,-0.045472145080566406,-0.18720903992652893
1772454511830204700,9.34820458984375,-0.16363154351711273,-0.05318998545408249,-0.16338039934635162
1772454511840222000,9.358221923828125,-0.12799471616744995,-0.04622368887066841,-0.1050792783498764
1772454511850239700,9.36823974609375,-0.08340541273355484,0.002841060282662511,-0.019339343532919884
1772454511860257800,9.3782578125,-0.04554298520088196,0.09670443832874298,0.07231387495994568
1772454511870275800,9.38827587890625,-0.015284148044884205,0.19474418461322784,0.15024755895137787
1772454511880294000,9.3982939453125,0.0019776634871959686,0.2529374361038208,0.2046884298324585
1772454511890310700,9.408310546875,0.007819573394954205,0.2636580169200897,0.22557666897773743
1772454511900329000,9.418328857421875,0.016939835622906685,0.23369663953781128,0.2103969156742096
1772454511910346800,9.4283466796875,0.0231146402657032,0.1847999393939972,0.1637631058692932
1772454511920364800,9.43836474609375,0.02575250156223774,0.13646170496940613,0.09655343741178513
1772454511930381800,9.4483818359375,0.018819760531187057,0.10530485212802887,0.021259216591715813
1772454511940399900,9.45839990234375,-0.0011624698527157307,0.10403265804052353,-0.059537630528211594
1772454511950417700,9.468417724609376,-0.03219681978225708,0.10779863595962524,-0.13772137463092804
1772454511960436000,9.47843603515625,-0.06916975229978561,0.10681220144033432,-0.1933409720659256
1772454511970452700,9.48845263671875,-0.11250150948762894,0.09517232328653336,-0.23166492581367493
1772454511980470800,9.498470703125,-0.15355174243450165,0.062309980392456055,-0.24589738249778748
1772454511990488800,9.50848876953125,-0.17972847819328308,0.013420733623206615,-0.22995729744434357
1772454512000507000,9.5185068359375,-0.178425133228302,-0.03563069924712181,-0.19504699110984802
1772454512010524700,9.528524658203125,-0.16261766850948334,-0.07645509392023087,-0.15130509436130524
1772454512020542000,9.5385419921875,-0.1350984275341034,-0.1428394466638565,-0.10076895356178284
1772454512030559700,9.548559814453125,-0.09219863265752792,-0.22402484714984894,-0.03993676230311394
1772454512040577800,9.558577880859374,-0.05210314691066742,-0.2126060128211975,0.027111511677503586
1772454512050595800,9.568595947265624,-0.019603261724114418,-0.10344276577234268,0.07995821535587311
1772454512060612900,9.57861279296875,-0.008035821840167046,0.04408889636397362,0.10795975476503372
1772454512070631000,9.588630859375,-0.005025651305913925,0.19032573699951172,0.10911743342876434
1772454512080649000,9.59864892578125,0.003038400551304221,0.2906416952610016,0.0914689302444458
1772454512090666800,9.608666748046875,0.022213958203792572,0.3145928382873535,0.0629747062921524
1772454512100683800,9.618683837890625,0.055443815886974335,0.28643175959587097,0.03261866420507431
1772454512110701800,9.628701904296875,0.09302075207233429,0.23435284197330475,0.005406483076512814
1772454512120720000,9.638719970703125,0.11756231635808945,0.15330779552459717,-0.017188839614391327
1772454512130737700,9.648737548828125,0.11795885860919952,0.0444183312356472,-0.02653839997947216
1772454512140756000,9.658755859375,0.1030435636639595,-0.03845737874507904,-0.02315591834485531
1772454512150772700,9.668772705078124,0.07340923696756363,-0.07544895261526108,-0.012887302786111832
1772454512160791000,9.678791015625,0.03906324505805969,-0.07665562629699707,-0.010002832859754562
1772454512170808800,9.688808837890624,0.0015584818320348859,-0.01563648320734501,-0.01683863438665867
1772454512180827000,9.698826904296874,-0.02110981196165085,0.04608786478638649,-0.029645510017871857
1772454512190844000,9.708843994140626,-0.03509087488055229,0.07943596690893173,-0.05606859549880028
1772454512200861700,9.71886181640625,-0.041670482605695724,0.08316865563392639,-0.08923719823360443
1772454512210879700,9.728879638671875,-0.04230484738945961,0.033312149345874786,-0.12973323464393616
1772454512220897800,9.738897705078125,-0.0351494662463665,-0.025244902819395065,-0.15996676683425903
1772454512230914800,9.748914794921875,-0.028732046484947205,-0.04579278826713562,-0.17603467404842377
1772454512240932600,9.7589326171875,-0.029582658782601357,-0.06072380021214485,-0.18092317879199982
1772454512250951000,9.768950927734375,-0.026984745636582375,-0.07428408414125443,-0.17645733058452606
1772454512260969000,9.778968994140625,-0.012314190156757832,-0.07193783670663834,-0.1562628448009491
1772454512270986800,9.78898681640625,0.005464806687086821,-0.0673643946647644,-0.12680454552173615
1772454512281003800,9.799003662109374,0.017406154423952103,-0.07028268277645111,-0.0947137251496315
1772454512291021800,9.809021728515624,0.025362880900502205,-0.09931593388319016,-0.06442239880561829
1772454512301039600,9.81903955078125,0.02250717394053936,-0.10802793502807617,-0.03314170613884926
1772454512311058000,9.829057861328126,0.014697985723614693,-0.06107347458600998,-0.002868224401026964
1772454512321074700,9.83907470703125,0.0073378076776862144,0.02207787148654461,0.023213177919387817
1772454512331092700,9.8490927734375,0.0012213257141411304,0.10131463408470154,0.049922019243240356
1772454512341110800,9.85911083984375,0.001184574095532298,0.14084233343601227,0.06803817301988602
1772454512351128800,9.86912890625,0.004036819562315941,0.1401459276676178,0.07612033188343048
1772454512361145900,9.879145751953125,0.008340754546225071,0.10228748619556427,0.0664631798863411
1772454512371164000,9.889163818359375,0.007769772317260504,0.04821280390024185,0.03262505307793617
1772454512381181700,9.899181640625,0.009516007266938686,-0.01967756450176239,-0.009944776073098183
1772454512391199700,9.90919970703125,0.017288709059357643,-0.08423658460378647,-0.046311572194099426
1772454512401217800,9.9192177734375,0.028204739093780518,-0.10675973445177078,-0.06208121404051781
1772454512411234800,9.92923486328125,0.031975775957107544,-0.09028489142656326,-0.061703577637672424
1772454512421252600,9.939252685546874,0.0132686672732234,-0.03880785033106804,-0.05284404009580612
1772454512431271000,9.94927099609375,-0.019221631810069084,0.0054818508215248585,-0.039269909262657166
1772454512441288700,9.959288818359376,-0.057983409613370895,0.02135828509926796,-0.02671043947339058
1772454512451306000,9.969305908203125,-0.07558317482471466,0.012961338274180889,-0.01990766078233719
1772454512461323800,9.97932373046875,-0.07047256827354431,-0.014255101792514324,-0.01546710729598999
1772454512471341800,9.989341796875,-0.040098149329423904,-0.0660485252737999,-0.009798835031688213
1772454512481359600,9.999359619140625,-0.006895722821354866,-0.11114196479320526,-0.009288573637604713
1772454512491377000,10.009376953125,0.024547154083848,-0.11161228269338608,-0.002531867241486907
1772454512501394700,10.019394775390625,0.03688371554017067,-0.05191592872142792,-0.0032916669733822346
1772454512511412700,10.029412841796875,0.03543602302670479,0.011687282472848892,-0.015426892787218094
1772454512521430800,10.0394306640625,0.023673636838793755,0.0486261248588562,-0.03483973816037178
1772454512531448800,10.04944873046875,0.002653307281434536,0.05628537759184837,-0.06061194837093353
1772454512541465900,10.0594658203125,-0.028811940923333168,0.039934366941452026,-0.09077277779579163
1772454512551484000,10.06948388671875,-0.05838261544704437,-0.007207578979432583,-0.12606871128082275
1772454512561501700,10.079501708984376,-0.0836794525384903,-0.06400934606790543,-0.14365489780902863
1772454512571519700,10.089519775390626,-0.09660696983337402,-0.09775958210229874,-0.1396724134683609
1772454512581536800,10.099536865234375,-0.10008798539638519,-0.09560428559780121,-0.11679159849882126
1772454512591554800,10.109554931640625,-0.09844934195280075,-0.062185343354940414,-0.08841881155967712
1772454512601572900,10.11957275390625,-0.09182073175907135,-0.005929528269916773,-0.057855311781167984
1772454512611591000,10.1295908203125,-0.068731389939785,0.04205957055091858,-0.02930755540728569
1772454512621607700,10.139607666015625,-0.03199441730976105,0.07552804797887802,0.0009835053933784366
1772454512631626000,10.1496259765625,0.00848589651286602,0.09608179330825806,0.034691136330366135
1772454512641643800,10.159643798828125,0.042094990611076355,0.08977355808019638,0.06265592575073242
1772454512651661800,10.169661865234374,0.050634149461984634,0.06866694241762161,0.08319661766290665
1772454512661678800,10.179678955078124,0.03821289911866188,0.029865486547350883,0.09149236232042313
1772454512671697000,10.18969677734375,0.006735667120665312,-0.0041044638492167,0.07417036592960358
1772454512681714700,10.199714599609376,-0.02990889735519886,-0.02003762312233448,0.0410584881901741
1772454512691733000,10.20973291015625,-0.05043547600507736,-0.02088051475584507,0.00072597770486027
1772454512701750500,10.21975048828125,-0.05663212016224861,-0.016398947685956955,-0.0396382212638855
1772454512711767600,10.229767578125,-0.05077289789915085,-0.0026495789643377066,-0.06320959329605103
1772454512721785600,10.23978564453125,-0.031197067350149155,0.006657902617007494,-0.06681498140096664
1772454512731803400,10.249803466796875,-0.015479090623557568,0.0020839234348386526,-0.051660798490047455
1772454512741821400,10.259821533203125,0.008097607642412186,0.0000798948312876746,-0.020911406725645065
1772454512751838500,10.26983837890625,0.02924550324678421,0.004131894558668137,0.015401060692965984
1772454512761856300,10.279856201171874,0.03970027342438698,-0.005408347584307194,0.0542864091694355
1772454512771874300,10.289874267578124,0.03442641720175743,-0.019519638270139694,0.07782875001430511
1772454512781892600,10.299892578125,0.01212883461266756,-0.02738049067556858,0.07711848616600037
1772454512791909400,10.309909423828126,-0.016458867117762566,-0.047695085406303406,0.05625900998711586
1772454512801927400,10.319927490234376,-0.04362417757511139,-0.06115363538265228,0.022103704512119293
1772454512811945500,10.329945556640626,-0.061296381056308746,-0.066246397793293,-0.021579859778285027
1772454512821963500,10.339963623046875,-0.06647516041994095,-0.05031163990497589,-0.0573011077940464
1772454512831981300,10.349981201171875,-0.06596330553293228,-0.015677496790885925,-0.08929499238729477
1772454512841998300,10.359998291015625,-0.05752667412161827,-0.001133174984715879,-0.09603837877511978
1772454512852016400,10.370016357421875,-0.05197611451148987,-0.004792091902345419,-0.09088116884231567
1772454512862034400,10.380034423828125,-0.03807814419269562,-0.012359464541077614,-0.07345663756132126
1772454512872052500,10.390052490234375,-0.023328226059675217,-0.015306784771382809,-0.04613633453845978
1772454512882069200,10.4000693359375,-0.011379687115550041,-0.022067485377192497,-0.017061807215213776
1772454512892087600,10.410087646484374,-0.00506959343329072,-0.03398299962282181,-0.002853044541552663
1772454512902105300,10.420105224609374,-0.015203986316919327,-0.03402028605341911,-0.00797297153621912
1772454512912123400,10.430123291015626,-0.03237791359424591,0.004541488364338875,-0.018338793888688087
1772454512922140400,10.440140380859376,-0.04746764898300171,0.03478807583451271,-0.033611755818128586
1772454512932158500,10.450158447265625,-0.057189520448446274,0.034499652683734894,-0.04898431897163391
1772454512942176300,10.46017626953125,-0.05776289850473404,0.012131230905652046,-0.058103516697883606
1772454512952194600,10.470194580078125,-0.04177514463663101,-0.01739736646413803,-0.056233443319797516
1772454512962212400,10.48021240234375,-0.024348216131329536,-0.03794924542307854,-0.050340667366981506
1772454512972229400,10.4902294921875,-0.01053200289607048,-0.04261377453804016,-0.03790716826915741
1772454512982247400,10.500247314453125,-0.00808961782604456,-0.044075582176446915,-0.033004555851221085
1772454512992265500,10.510265380859375,-0.006724747829139233,-0.036973197013139725,-0.021494906395673752
1772454513002283300,10.520283203125,-0.006281598005443811,-0.0249082800000906,-0.006168679799884558
1772454513012300500,10.530300537109374,-0.00279072648845613,-0.017776601016521454,0.0009062737226486206
1772454513022318300,10.540318359375,-0.005412076134234667,-0.006016347091645002,0.007919175550341606
1772454513032336400,10.55033642578125,-0.01215919479727745,0.005343899130821228,0.0017811221769079566
1772454513042354400,10.5603544921875,-0.010181531310081482,0.011093131266534328,-0.008206530474126339
1772454513052371500,10.570371337890625,-0.004267981741577387,-0.0033457293175160885,-0.024567129090428352
1772454513062389200,10.58038916015625,0.012355469167232513,-0.0208877045661211,-0.03185620158910751
1772454513072407600,10.590407470703125,0.025371136143803596,-0.02190450020134449,-0.02810700237751007
1772454513082425300,10.60042529296875,0.02888863906264305,-0.015388277359306812,-0.028332572430372238
1772454513092443400,10.610443359375,0.026749055832624435,-0.0220352616161108,-0.0167334396392107
1772454513102460400,10.62046044921875,0.024585237726569176,-0.023307187482714653,-0.007454187609255314
1772454513112478500,10.630478515625,0.013916348107159138,-0.023036077618598938,-0.011424960568547249
1772454513122496300,10.640496337890625,-0.008135423995554447,-0.03852475434541702,-0.04542740434408188
1772454513132514600,10.6505146484375,-0.03429831936955452,-0.03744031488895416,-0.11961454898118973
1772454513142531300,10.66053125,-0.05461690574884415,-0.008355135098099709,-0.22532020509243011
1772454513152549600,10.670549560546876,-0.056415606290102005,0.0409809872508049,-0.31969863176345825
1772454513162567400,10.6805673828125,-0.0937078520655632,0.21274343132972717,-0.1834353357553482
1772454513172585500,10.69058544921875,-0.15223108232021332,0.18535494804382324,-0.04262469336390495
1772454513182602500,10.7006025390625,-0.177657350897789,0.12774571776390076,0.08106902241706848
1772454513192620500,10.71062060546875,-0.14851011335849762,0.05006103590130806,0.1961500644683838
1772454513202638300,10.720638427734375,-0.07166406512260437,0.03716893866658211,0.2327834516763687
1772454513212656400,10.730656494140625,0.026376213878393173,0.016631973907351494,0.16918689012527466
1772454513222674400,10.74067431640625,0.12511131167411804,-0.027635356411337852,0.05441930145025253
1772454513232691500,10.75069140625,0.19131137430667877,-0.05209143087267876,-0.09430573135614395
1772454513242709500,10.76070947265625,0.20446738600730896,-0.039863791316747665,-0.2359480857849121
1772454513252727600,10.7707275390625,0.16174203157424927,-0.012839632108807564,-0.324202299118042
1772454513262745300,10.780745361328124,0.06125936284661293,0.0447661392390728,-0.3021257817745209
1772454513272762600,10.7907626953125,-0.0496024414896965,0.05440465360879898,-0.1927683800458908
