time,seconds_elapsed,z,y,x
1772454502548732700,0.066732666015625,0.04708372429013252,0.11023259162902832,-0.047308191657066345
1772454502558750700,0.076750732421875,0.018827853724360466,0.10964110493659973,-0.0340895913541317
1772454502568768800,0.086768798828125,-0.005883853416889906,0.09920364618301392,-0.039408355951309204
1772454502578786600,0.09678662109375,-0.018577544018626213,0.09968487918376923,-0.054035503417253494
1772454502588803800,0.106803955078125,-0.021736741065979004,0.10159836709499359,-0.07680361717939377
1772454502598821600,0.116821533203125,-0.017664235085248947,0.1033664420247078,-0.09359510987997055
1772454502608839700,0.126839599609375,-0.019214117899537086,0.10747489333152771,-0.10144001245498657
1772454502618857700,0.136857666015625,-0.015527504496276379,0.09871016442775726,-0.09535256028175354
1772454502628875800,0.146875732421875,-0.017007580026984215,0.0763782262802124,-0.07346022874116898
1772454502638892500,0.156892578125,-0.024029269814491272,0.05061719939112663,-0.024300144985318184
1772454502648910800,0.166910888671875,-0.03540991246700287,0.03688860684633255,0.02321869134902954
1772454502658928600,0.1769287109375,-0.04806898161768913,0.021742945536971092,0.06988845765590668
1772454502668946700,0.18694677734375,-0.06268715113401413,0.0031591446604579687,0.09691238403320312
1772454502678964700,0.19696484375,-0.05900799483060837,-0.015077915973961353,0.10815145075321198
1772454502688982300,0.206982177734375,-0.06271350383758545,-0.025775577872991562,0.09555236250162125
1772454502699000300,0.217000244140625,-0.06728162616491318,-0.022902293130755424,0.06684987992048264
1772454502709018000,0.22701806640625,-0.07330271601676941,-0.018746161833405495,0.017950918525457382
1772454502719036400,0.237036376953125,-0.07169868797063828,-0.003281718585640192,-0.02695929817855358
1772454502729054200,0.24705419921875,-0.061606742441654205,0.021723764017224312,-0.05743173137307167
1772454502739071500,0.257071533203125,-0.051786333322525024,0.07230092585086823,-0.0618126317858696
1772454502749089300,0.26708935546875,-0.05317048728466034,0.10836385190486908,-0.05031557381153107
1772454502759107300,0.277107421875,-0.0594470240175724,0.11950305849313736,-0.028049150481820107
1772454502769125000,0.287125,-0.06402391195297241,0.11191412061452866,-0.006996021140366793
1772454502779142400,0.297142333984375,-0.06132587045431137,0.08470647037029266,0.009864984080195427
1772454502789160200,0.30716015625,-0.048936355859041214,0.037905141711235046,0.026971392333507538
1772454502799178200,0.31717822265625,-0.03572574630379677,-0.021249257028102875,0.046455077826976776
1772454502809196300,0.3271962890625,-0.030027005821466446,-0.05774868652224541,0.057221245020627975
1772454502819214300,0.33721435546875,-0.03166671469807625,-0.07169246673583984,0.0638759508728981
1772454502829231400,0.3472314453125,-0.03099609911441803,-0.06687718629837036,0.06320252269506454
1772454502839249400,0.35724951171875,-0.03105335682630539,-0.06718131899833679,0.05151177570223808
1772454502849267200,0.36726708984375,-0.01876767724752426,-0.06663724780082703,0.04021034389734268
1772454502859285200,0.37728515625,-0.006659083068370819,-0.06226673349738121,0.01837295852601528
1772454502869303300,0.38730322265625,0.00971746351569891,-0.0511951670050621,-0.004731394816190004
1772454502879320300,0.3973203125,0.016164178028702736,-0.04695301875472069,-0.022694149985909462
1772454502889338400,0.40733837890625,0.02191123180091381,-0.0481082983314991,-0.023670071735978127
1772454502899356400,0.4173564453125,0.028196824714541435,-0.041048258543014526,-0.003953359555453062
1772454502909374200,0.427374267578125,0.026177363470196724,-0.03237195685505867,0.019431916996836662
1772454502919392300,0.437392333984375,0.02103479951620102,-0.03609053045511246,0.042309798300266266
1772454502929409300,0.4474091796875,0.014574705623090267,-0.0384996272623539,0.05327465757727623
1772454502939427300,0.45742724609375,0.008383922278881073,-0.04743639752268791,0.05566830560564995
1772454502949445000,0.467445068359375,0.005419291090220213,-0.058943383395671844,0.0560600571334362
1772454502959463400,0.47746337890625,0.0052533759735524654,-0.0630478486418724,0.05555325746536255
1772454502969480200,0.487480224609375,0.00449481513351202,-0.0563739538192749,0.04794430360198021
1772454502979498500,0.49749853515625,0.005823200102895498,-0.04738365486264229,0.03519468754529953
1772454502989516300,0.507516357421875,0.011235198937356472,-0.03542952239513397,0.019660763442516327
1772454502999534300,0.517534423828125,0.019404178485274315,-0.02764297090470791,0.00400377344340086
1772454503009552100,0.52755224609375,0.020545106381177902,-0.018318185582756996,-0.0057965610176324844
1772454503019569400,0.5375693359375,0.019129903987050056,-0.0088338702917099,-0.005806680768728256
1772454503029587200,0.547587158203125,0.017616990953683853,0.006495547480881214,-0.004093636758625507
1772454503039605500,0.55760546875,0.02205781266093254,0.016897056251764297,0.0031309868209064007
1772454503049623300,0.567623291015625,0.02710934542119503,0.024503841996192932,0.01034563034772873
1772454503059641300,0.577641357421875,0.04095378518104553,0.025196796283125877,0.016109243035316467
1772454503069658400,0.587658447265625,0.05073723942041397,0.02301194705069065,0.020739594474434853
1772454503079676400,0.597676513671875,0.050108201801776886,0.016942337155342102,0.02241312526166439
1772454503089694200,0.607694091796875,0.04221910238265991,-0.0011131027713418007,0.022085249423980713
1772454503099712300,0.617712158203125,0.028889181092381477,-0.02690288797020912,0.01150557678192854
1772454503109729300,0.627729248046875,0.017837252467870712,-0.04187836870551109,-0.004060039762407541
1772454503119747300,0.637747314453125,0.010458165779709816,-0.04258277639746666,-0.031155042350292206
1772454503129765400,0.647765380859375,0.005363615695387125,-0.03669533133506775,-0.0641750693321228
1772454503139783400,0.657783447265625,0.0052640135399997234,-0.035101961344480515,-0.09880628436803818
1772454503149801200,0.66780126953125,0.0022230446338653564,-0.022082829847931862,-0.11514236778020859
1772454503159818500,0.677818603515625,-0.00028458796441555023,-0.004817291162908077,-0.11326777189970016
1772454503169836300,0.687836181640625,0.0032739583402872086,-0.006188557483255863,-0.09165531396865845
1772454503179854300,0.697854248046875,0.0123390918597579,-0.0173282939940691,-0.06336402148008347
1772454503189872400,0.707872314453125,0.024750379845499992,-0.041221633553504944,-0.02710648998618126
1772454503199890400,0.717890380859375,0.03178272396326065,-0.07283468544483185,0.01010799128562212
1772454503209907200,0.7279072265625,0.03566742688417435,-0.1133248582482338,0.04114007204771042
1772454503219925500,0.737925537109375,0.03664480894804001,-0.13404639065265656,0.06646406650543213
1772454503229943300,0.747943359375,0.04618459567427635,-0.14522846043109894,0.08899624645709991
1772454503239961300,0.75796142578125,0.05743219330906868,-0.1300431191921234,0.08542893826961517
1772454503249979100,0.767979248046875,0.058485329151153564,-0.10469195991754532,0.05265646055340767
1772454503259996400,0.777996337890625,0.054332930594682693,-0.07356173545122147,0.006965938489884138
1772454503270014200,0.78801416015625,0.05718947947025299,-0.043724481016397476,-0.027031036093831062
1772454503280032500,0.798032470703125,0.058721330016851425,-0.020773891359567642,-0.05529356747865677
1772454503290050300,0.80805029296875,0.05394396558403969,-0.004458834882825613,-0.07855471223592758
1772454503300068400,0.818068359375,0.04801204055547714,0.014323107898235321,-0.09262232482433319
1772454503310085400,0.82808544921875,0.04701616242527962,0.0336531326174736,-0.09461954236030579
1772454503320103400,0.838103515625,0.044648345559835434,0.04104926437139511,-0.08753606677055359
1772454503330121200,0.848121337890625,0.04028242081403732,0.035133060067892075,-0.0629381313920021
1772454503340139300,0.85813916015625,0.027218816801905632,0.023752572014927864,-0.02871704287827015
1772454503350156300,0.86815625,0.00730244442820549,0.011945442296564579,0.009089963510632515
1772454503360174300,0.87817431640625,-0.014760780148208141,0.004684600047767162,0.034906912595033646
1772454503370192400,0.8881923828125,-0.02819819748401642,-0.003194626420736313,0.045716430991888046
1772454503380210400,0.89821044921875,-0.03079584613442421,-0.012950317934155464,0.03958263620734215
1772454503390228200,0.908228271484375,-0.034011468291282654,-0.00801174808293581,0.024409431964159012
1772454503400245200,0.918245361328125,-0.03201249986886978,0.010096682235598564,0.008984403684735298
1772454503410263300,0.92826318359375,-0.032915472984313965,0.026395482942461967,-0.000527004711329937
1772454503420281300,0.93828125,-0.028079969808459282,0.0347018837928772,-0.011835586279630661
1772454503430299400,0.94829931640625,-0.018370646983385086,0.04738785699009895,-0.019923970103263855
1772454503440317400,0.9583173828125,-0.005322223529219627,0.04483947902917862,-0.026196779683232307
1772454503450334200,0.968334228515625,0.009088359773159027,0.03708408772945404,-0.02793996036052704
1772454503460352500,0.9783525390625,0.030539855360984802,0.0674840658903122,0.0023990373592823744
1772454503470370300,0.988370361328125,0.020882312208414078,0.05608361214399338,0.033962976187467575
1772454503480388400,0.998388427734375,-0.005574330221861601,-0.011643770150840282,0.06019032001495361
1772454503490406400,1.008406494140625,-0.021510325372219086,-0.037734758108854294,0.07480522990226746
1772454503500423200,1.018423095703125,-0.017818119376897812,-0.05150729417800903,0.07851741462945938
1772454503510441200,1.028441162109375,-0.015064801089465618,-0.04058406874537468,0.05256345868110657
1772454503520459500,1.03845947265625,-0.031612884253263474,-0.012156421318650246,-0.00903705321252346
1772454503530477300,1.048477294921875,-0.055201444774866104,0.01133212260901928,-0.08536313474178314
1772454503540494000,1.058494140625,-0.08028256148099899,0.05148140341043472,-0.15422901511192322
1772454503550512400,1.068512451171875,-0.09578602761030197,0.11675388365983963,-0.18490666151046753
1772454503560530400,1.078530517578125,-0.09559054672718048,0.14258360862731934,-0.18963803350925446
1772454503570548200,1.08854833984375,-0.07351994514465332,0.11129786819219589,-0.1783912181854248
1772454503580566500,1.09856640625,-0.05503654479980469,0.05491475760936737,-0.1645592898130417
1772454503590583300,1.108583251953125,-0.04378607124090195,-0.009477297775447369,-0.1519879549741745
1772454503600601000,1.11860107421875,-0.04968790337443352,-0.050096895545721054,-0.1346326619386673
1772454503610619400,1.128619384765625,-0.04352981597185135,-0.0758025199174881,-0.10711350291967392
1772454503620637400,1.138637451171875,-0.033989571034908295,-0.06264278292655945,-0.08389659970998764
1772454503630655200,1.1486552734375,-0.019916957244277,-0.03591448813676834,-0.05947774648666382
1772454503640672300,1.15867236328125,0.0009939183946698904,-0.020456967875361443,-0.03810667619109154
1772454503650690300,1.168690185546875,0.021719561889767647,-0.0012625029776245356,-0.02171454019844532
1772454503660708000,1.1787080078125,0.032419342547655106,0.022532574832439423,-0.008494609966874123
1772454503670726400,1.188726318359375,0.0329592302441597,0.043570227921009064,0.0019720618147403
1772454503680744400,1.198744384765625,0.03724745288491249,0.02958064153790474,0.019033337011933327
1772454503690761200,1.20876123046875,0.03856898844242096,-0.000735193258151412,0.033696938306093216
1772454503700779300,1.218779296875,0.02557382918894291,-0.02886403352022171,0.03764214739203453
1772454503710797300,1.22879736328125,0.01272551715373993,-0.0440019816160202,0.03665791451931
1772454503720815400,1.2388154296875,0.0005498109967447817,-0.04770537465810776,0.01598432846367359
1772454503730832400,1.248832275390625,-0.00028449343517422676,-0.06961359083652496,-0.011664696037769318
1772454503740850200,1.25885009765625,0.017379719763994217,-0.09505770355463028,-0.03282111510634422
1772454503750868200,1.2688681640625,0.031212862581014633,-0.1201542317867279,-0.030060606077313423
1772454503760886300,1.27888623046875,0.027137160301208496,-0.10482613742351532,-0.008510305546224117
1772454503770904300,1.288904296875,-0.0013598790392279625,-0.04111858084797859,0.021655729040503502
1772454503780921300,1.29892138671875,-0.03449093550443649,0.028535865247249603,0.04504334554076195
1772454503790939400,1.308939453125,-0.049770865589380264,0.07086388766765594,0.06355881690979004
1772454503800957200,1.318957275390625,-0.04642487317323685,0.08371417969465256,0.07130222022533417
1772454503810975200,1.328975341796875,-0.03558493033051491,0.07884164899587631,0.06764327734708786
1772454503820993500,1.33899365234375,-0.027317412197589874,0.06362408399581909,0.055992744863033295
1772454503831010300,1.34901025390625,-0.022034673020243645,0.04181359335780144,0.03921164572238922
1772454503841028000,1.359028076171875,-0.020128382369875908,0.013748136349022388,0.019249388948082924
1772454503851046400,1.36904638671875,-0.018245574086904526,-0.0027490826323628426,-0.005410023499280214
1772454503861064200,1.379064208984375,-0.011062495410442352,-0.02062821388244629,-0.01644163578748703
1772454503871081500,1.38908154296875,-0.0055084554478526115,-0.03705858066678047,-0.025097135454416275
1772454503881099300,1.399099365234375,0.0035548140294849873,-0.03453443571925163,-0.022928789258003235
1772454503891117300,1.409117431640625,0.008664308115839958,-0.04557963088154793,-0.009662392549216747
1772454503901135000,1.419135009765625,0.004889543168246746,-0.05919690430164337,0.0023689710069447756
1772454503911153400,1.4291533203125,-0.0009634747402742505,-0.05325007066130638,0.018492519855499268
1772454503921170200,1.439170166015625,-0.006495126523077488,-0.04896850511431694,0.025455353781580925
1772454503931188200,1.449188232421875,-0.013859269209206104,-0.05053631216287613,0.017773833125829697
1772454503941206300,1.459206298828125,-0.011240582913160324,-0.03716857731342316,0.002483825432136655
1772454503951224300,1.469224365234375,-0.008670318871736526,-0.020664436742663383,-0.01965356059372425
1772454503961242000,1.4792421875,-0.007586146239191294,-0.01577061042189598,-0.03974205255508423
1772454503971259400,1.48925927734375,-0.004664735868573189,-0.020483070984482765,-0.05118749290704727
1772454503981277200,1.499277099609375,-0.001114742481149733,-0.03357863426208496,-0.036829859018325806
1772454503991295200,1.509295166015625,0.004341340158134699,-0.048439063131809235,-0.014873511157929897
1772454504001313300,1.519313232421875,0.004233748652040958,-0.047667279839515686,0.011628669686615467
1772454504011330300,1.529330322265625,0.0036578490398824215,-0.03550834581255913,0.029943915084004402
1772454504021348400,1.539348388671875,-0.0038109864108264446,-0.01226054783910513,0.03354370966553688
1772454504031366400,1.549366455078125,-0.004827674478292465,0.00329576269723475,0.02686111070215702
1772454504041384200,1.55938427734375,-0.001643332652747631,0.008831676095724106,0.017688119783997536
1772454504051402200,1.56940234375,-0.005192433018237352,0.01632075197994709,0.008400358259677887
1772454504061419300,1.579419189453125,-0.008210859261453152,0.02925306372344494,-0.0002506541204638779
1772454504071437300,1.589437255859375,-0.007115855347365141,0.0213799886405468,0.0042135757394135
1772454504081455000,1.599455078125,-0.010634955950081348,0.011774498037993908,0.010436317883431911
1772454504091473400,1.609473388671875,-0.010838570073246956,-0.0055509950034320354,0.02142065204679966
1772454504101491200,1.6194912109375,-0.014696957543492317,-0.022760076448321342,0.026488913223147392
1772454504111508500,1.629508544921875,-0.016135958954691887,-0.033187419176101685,0.02096656896173954
1772454504121526300,1.6395263671875,-0.010114551521837711,-0.03624019771814346,0.01176215149462223
1772454504131544300,1.64954443359375,-0.0007576425559818745,-0.03138471394777298,-0.001802997081540525
1772454504141562000,1.65956201171875,0.006285353098064661,-0.01695517636835575,-0.018045617267489433
1772454504151580400,1.669580322265625,0.01805824786424637,-0.019448431208729744,-0.02719825506210327
1772454504161597200,1.67959716796875,0.031334906816482544,-0.02380962483584881,-0.02808375656604767
1772454504171615500,1.689615478515625,0.04350973665714264,-0.01197559479624033,-0.018187688663601875
1772454504181633300,1.69963330078125,0.04565730690956116,0.00417780876159668,-0.0014388029230758548
1772454504191651300,1.7096513671875,0.04432597756385803,-0.0008417253848165274,0.007318428717553616
1772454504201668400,1.71966845703125,0.04302981495857239,-0.0014276208821684122,0.01315155066549778
1772454504211686400,1.729686279296875,0.04254938289523125,-0.0033349767327308655,0.009859350509941578
1772454504221704200,1.7397041015625,0.03466882184147835,-0.01479935273528099,-0.008217920549213886
1772454504231722200,1.74972216796875,0.026014506816864014,-0.010713784955441952,-0.027070507407188416
1772454504241740300,1.759740234375,0.014247861690819263,0.01334201730787754,-0.04183187708258629
1772454504251757300,1.76975732421875,0.0023161445278674364,0.04839372634887695,-0.03694988042116165
1772454504261775400,1.779775390625,-0.006104238331317902,0.06891471892595291,-0.010412278585135937
1772454504271793400,1.78979345703125,-0.017832186073064804,0.07564026862382889,0.026056205853819847
1772454504281811200,1.799811279296875,-0.031614575535058975,0.0671948567032814,0.06306642293930054
1772454504291829200,1.809829345703125,-0.04981859773397446,0.04848109930753708,0.09586915373802185
1772454504301846300,1.81984619140625,-0.06348114460706711,0.02098609320819378,0.12412555515766144
1772454504311864300,1.8298642578125,-0.07007693499326706,0.08060706406831741,0.13713236153125763
1772454504321882400,1.83988232421875,-0.06454954296350479,0.1785045862197876,0.11362224817276001
1772454504331900400,1.849900390625,-0.0486023984849453,0.24232061207294464,0.08589969575405121
1772454504341917200,1.859917236328125,-0.032761383801698685,0.2571253776550293,0.05761132761836052
1772454504351935500,1.869935546875,-0.016220204532146454,0.25197485089302063,0.04713262990117073
1772454504361953300,1.879953369140625,-0.0019230240723118186,0.2605457007884979,0.044394634664058685
1772454504371971300,1.889971435546875,0.017891332507133484,0.2693639397621155,0.04593819007277489
1772454504381989000,1.899989013671875,0.040767885744571686,0.2549192011356354,0.059999678283929825
1772454504392006400,1.91000634765625,0.06231437996029854,0.26122745871543884,0.08293244987726212
1772454504402024200,1.920024169921875,0.08050429821014404,0.2542167007923126,0.10298126190900803
1772454504412042500,1.93004248046875,0.10919639468193054,0.2488996833562851,0.11379848420619965
1772454504422060300,1.940060302734375,0.13642989099025726,0.1859433501958847,0.10987432301044464
1772454504432078300,1.950078369140625,0.14918112754821777,0.06863217055797577,0.0978851392865181
1772454504442095400,1.960095458984375,0.15780791640281677,-0.06189361959695816,0.07399045675992966
1772454504452113400,1.970113525390625,0.1788204461336136,-0.23194657266139984,0.0341876782476902
1772454504462131200,1.980131103515625,0.2283560335636139,-0.4014700651168823,-0.031735148280858994
1772454504472149200,1.990149169921875,0.30211883783340454,-0.49077919125556946,-0.11992441117763519
1772454504482166300,2.000166259765625,0.38759031891822815,-0.4258449077606201,-0.17513467371463776
1772454504492184300,2.010184326171875,0.30838119983673096,0.11887536942958832,0.03283889964222908
1772454504502202400,2.020202392578125,0.21853920817375183,0.3113231062889099,0.28298962116241455
1772454504512220400,2.030220458984375,0.14155398309230804,0.3412626087665558,0.47539961338043213
1772454504522238200,2.04023828125,0.08161023259162903,0.3763119578361511,0.5783420205116272
1772454504532255500,2.05025537109375,0.039153944700956345,0.38375040888786316,0.6022084355354309
1772454504542273300,2.060273193359375,-0.004050782881677151,0.34841373562812805,0.5608646869659424
1772454504552291300,2.070291259765625,-0.04965222626924515,0.3107406795024872,0.4761270582675934
1772454504562309400,2.080309326171875,-0.106010302901268,0.32845523953437805,0.36834651231765747
1772454504572326400,2.090326416015625,-0.15766583383083344,0.3631120026111603,0.2702789604663849
1772454504582344200,2.10034423828125,-0.1903630644083023,0.3765071630477905,0.20025616884231567
1772454504592362500,2.110362548828125,-0.19580453634262085,0.37731385231018066,0.15022538602352142
1772454504602380300,2.12038037109375,-0.17696507275104523,0.3300054669380188,0.11911645531654358
1772454504612398300,2.1303984375,-0.1305171102285385,0.2171579748392105,0.1031847894191742
1772454504622415400,2.140415283203125,-0.07032966613769531,0.06923643499612808,0.08912383019924164
1772454504632433400,2.150433349609375,-0.00025222194381058216,-0.10647787153720856,0.06553515791893005
1772454504642451200,2.160451171875,0.06496939063072205,-0.2909635603427887,0.044602178037166595
1772454504652469500,2.170469482421875,0.12259053438901901,-0.39331549406051636,0.032271504402160645
1772454504662487300,2.1804873046875,0.16907894611358643,-0.4005025625228882,0.048088282346725464
1772454504672504000,2.190504150390625,0.21084624528884888,-0.343393474817276,0.08669181168079376
1772454504682522400,2.2005224609375,0.23298190534114838,-0.18486322462558746,0.21334323287010193
1772454504692539400,2.210539306640625,0.19281259179115295,-0.19636167585849762,0.31276416778564453
1772454504702557400,2.220557373046875,0.09904775023460388,-0.1457834541797638,0.33549878001213074
1772454504712574500,2.230574462890625,-0.01526710670441389,0.035446252673864365,0.2664733827114105
1772454504722592500,2.240592529296875,-0.10343717783689499,0.11469659954309464,0.19406068325042725
1772454504732610600,2.250610595703125,-0.16573739051818848,0.19995024800300598,0.10688316076993942
1772454504742628600,2.260628662109375,-0.20126982033252716,0.22311335802078247,-0.00861387699842453
1772454504752646400,2.270646484375,-0.19828841090202332,0.12055715173482895,-0.12681454420089722
1772454504762663700,2.28066357421875,-0.12819242477416992,-0.047602031379938126,-0.18733754754066467
1772454504772681500,2.290681396484375,0.03431364893913269,-0.2331008017063141,-0.19617661833763123
1772454504782699500,2.300699462890625,0.2613968551158905,-0.4592817425727844,-0.1741887629032135
1772454504792717600,2.310717529296875,0.49492257833480835,-0.7081857919692993,-0.1296757459640503
1772454504802734600,2.320734619140625,0.6770346164703369,-0.8913028836250305,-0.07562663406133652
1772454504812752400,2.33075244140625,0.7473734617233276,-0.9197375178337097,-0.031113801524043083
1772454504822770700,2.340770751953125,0.7013266086578369,-0.808905839920044,-0.010515849106013775
1772454504832788500,2.35078857421875,0.5745679140090942,-0.6826660633087158,-0.00222338386811316
1772454504842806500,2.360806640625,0.41456255316734314,-0.6025331616401672,0.015644563362002373
1772454504852823600,2.370823486328125,0.2561684846878052,-0.442513108253479,0.05974629893898964
1772454504862841600,2.380841552734375,0.11765162646770477,-0.1728491634130478,0.12931817770004272
1772454504872859400,2.390859375,-0.004627340007573366,0.10654892772436142,0.18959055840969086
1772454504882877700,2.400877685546875,-0.10273579508066177,0.2980709373950958,0.2146458476781845
1772454504892895500,2.4108955078125,-0.17577439546585083,0.3890480101108551,0.19862161576747894
1772454504902912500,2.42091259765625,-0.19967865943908691,0.4151427149772644,0.14554189145565033
1772454504912930600,2.4309306640625,-0.17161473631858826,0.38794493675231934,0.08004403114318848
1772454504922948600,2.440948486328125,-0.1083739846944809,0.3333682417869568,0.005472326185554266
1772454504932966400,2.45096630859375,-0.03833334147930145,0.26258885860443115,-0.06576041877269745
1772454504942983700,2.460983642578125,0.024411264806985855,0.19874994456768036,-0.13066723942756653
1772454504953001500,2.47100146484375,0.06766042858362198,0.09549946337938309,-0.1764543205499649
1772454504963019500,2.48101953125,0.09164165705442429,-0.026178505271673203,-0.19610977172851562
1772454504973037600,2.49103759765625,0.10285217314958572,-0.10900173336267471,-0.19767113029956818
1772454504983055600,2.5010556640625,0.09475322812795639,-0.14898990094661713,-0.181304931640625
1772454504993072400,2.511072265625,0.07350023835897446,-0.19008086621761322,-0.1651187539100647
1772454505003090700,2.521090576171875,0.03866236284375191,-0.22539730370044708,-0.14826707541942596
1772454505013108500,2.5311083984375,0.005397881846874952,-0.19260047376155853,-0.13008220493793488
1772454505023126500,2.54112646484375,-0.024598367512226105,-0.10573429614305496,-0.1077185794711113
1772454505033143600,2.5511435546875,-0.0430956669151783,-0.00902906246483326,-0.08960496634244919
1772454505043161600,2.56116162109375,-0.043678365647792816,0.05001161992549896,-0.07729876786470413
1772454505053179400,2.571179443359375,-0.026843884959816933,0.059983544051647186,-0.05686984956264496
1772454505063197700,2.58119775390625,-0.003908209502696991,0.06479507684707642,-0.03513845428824425
1772454505073215500,2.591215576171875,0.012985771521925926,0.09876982122659683,-0.012949405238032341
1772454505083232800,2.601232666015625,0.019610386341810226,0.14277802407741547,-0.0011534657096490264
1772454505093250600,2.61125048828125,0.014710281044244766,0.1564357876777649,-0.0008330315467901528
1772454505103268600,2.6212685546875,0.007273936178535223,0.13130034506320953,-0.01246944721788168
1772454505113286400,2.631286376953125,-0.0035896957851946354,0.06289997696876526,-0.03202628716826439
1772454505123304700,2.6413046875,-0.009817763231694698,-0.01610749214887619,-0.05759502947330475
1772454505133321500,2.651321533203125,-0.013806989416480064,-0.05623120442032814,-0.0800907239317894
1772454505143339500,2.661339599609375,-0.019607622176408768,-0.05237255245447159,-0.10148709267377853
1772454505153357600,2.671357666015625,-0.030727475881576538,-0.02463652938604355,-0.12526488304138184
1772454505163375600,2.681375732421875,-0.033419933170080185,-0.01308906264603138,-0.1415703445672989
1772454505173392600,2.691392578125,-0.021244144067168236,-0.03138255700469017,-0.1495225876569748
1772454505183410700,2.70141064453125,-0.004925091750919819,-0.0722879096865654,-0.14820058643817902
1772454505193428500,2.711428466796875,0.020189154893159866,-0.06866230815649033,-0.12338678538799286
1772454505203446500,2.721446533203125,0.029853498563170433,-0.03443935140967369,-0.09752535820007324
1772454505213464600,2.731464599609375,0.01929245889186859,-0.013586245477199554,-0.06906528025865555
1772454505223481600,2.741481689453125,-0.013876679353415966,-0.0026150867342948914,-0.04553491622209549
1772454505233499600,2.751499755859375,-0.05109721049666405,0.004546410404145718,-0.04363664612174034
1772454505243517700,2.761517578125,-0.07975441962480545,-0.0020712788682430983,-0.04929453134536743
1772454505253535500,2.771535400390625,-0.09103293716907501,-0.004620745312422514,-0.07176023721694946
1772454505263553500,2.781553466796875,-0.08301469683647156,-0.014575375244021416,-0.10360019654035568
1772454505273570600,2.791570556640625,-0.06732847541570663,-0.04650239646434784,-0.1281622052192688
1772454505283588600,2.801588623046875,-0.049217913299798965,-0.09120462834835052,-0.13682812452316284
1772454505293606400,2.8116064453125,-0.029537389054894447,-0.13549433648586273,-0.11291790008544922
1772454505303624700,2.821624755859375,-0.004240820650011301,-0.11558134108781815,-0.05550440773367882
1772454505313641500,2.831641357421875,0.01555644441395998,-0.046822525560855865,0.02316761389374733
1772454505323659800,2.84165966796875,0.02190488763153553,0.02409585751593113,0.0973033607006073
1772454505333677600,2.851677490234375,0.022367479279637337,0.07999666780233383,0.15258632600307465
1772454505343695600,2.861695556640625,0.021412735804915428,0.11274156719446182,0.17800885438919067
1772454505353713400,2.87171337890625,0.022913586348295212,0.12257637083530426,0.18179260194301605
1772454505363730700,2.881730712890625,0.025219084694981575,0.10353077948093414,0.1661667823791504
1772454505373748500,2.89174853515625,0.027504609897732735,0.07174728065729141,0.13175047934055328
1772454505383766500,2.9017666015625,0.01942244917154312,0.049080587923526764,0.08039834350347519
1772454505393784600,2.91178466796875,0.0011647515930235386,0.03498338535428047,0.029387792572379112
1772454505403801300,2.92180126953125,-0.024973642081022263,0.02822161838412285,-0.022650109604001045
1772454505413819600,2.931819580078125,-0.0505654402077198,0.009292680770158768,-0.07024766504764557
1772454505423837700,2.941837646484375,-0.06172488257288933,-0.01710030995309353,-0.10702326148748398
1772454505433855500,2.95185546875,-0.06645277142524719,-0.03230828046798706,-0.13116717338562012
1772454505443873500,2.96187353515625,-0.0595242977142334,-0.02453451231122017,-0.1340218037366867
1772454505453890600,2.971890625,-0.03768537566065788,-0.0204915814101696,-0.11439449340105057
1772454505463908600,2.98190869140625,-0.01661071740090847,-0.022738223895430565,-0.07777602970600128
1772454505473926700,2.9919267578125,0.004329888615757227,-0.006029554642736912,-0.025536542758345604
1772454505483944700,3.00194482421875,0.016637688502669334,0.017945285886526108,0.02455778419971466
1772454505493961500,3.01196142578125,0.014433331787586212,0.03148295357823372,0.05913234129548073
1772454505503979500,3.0219794921875,-0.003801332786679268,0.035963188856840134,0.059406381100416183
1772454505513997600,3.03199755859375,-0.025750361382961273,0.02298184670507908,0.04211248829960823
1772454505524015600,3.042015625,-0.04097645357251167,0.010524910874664783,0.008541744202375412
1772454505534033700,3.05203369140625,-0.04836703836917877,0.006994091905653477,-0.02165278233587742
1772454505544050400,3.062050537109375,-0.04824799671769142,-0.0016140439547598362,-0.04020196571946144
1772454505554068500,3.072068359375,-0.04167288914322853,-0.02360399067401886,-0.04414927586913109
1772454505564086500,3.08208642578125,-0.029801584780216217,-0.04182427376508713,-0.03302711620926857
1772454505574104600,3.0921044921875,-0.02198106423020363,-0.03195144608616829,-0.005977696273475885
1772454505584121300,3.102121337890625,-0.01477481797337532,-0.01537992525845766,0.02656027302145958
1772454505594139600,3.1121396484375,-0.015079164877533913,-0.005286520346999168,0.059204891324043274
1772454505604157400,3.122157470703125,-0.01945207454264164,0.017420923337340355,0.07359102368354797
1772454505614175500,3.132175537109375,-0.022904187440872192,0.04497372731566429,0.07322792708873749
1772454505624193800,3.14219384765625,-0.015819380059838295,0.06826120615005493,0.06699825823307037
1772454505634210600,3.15221044921875,-0.00989331305027008,0.08047632873058319,0.06100348010659218
1772454505644228400,3.162228271484375,-0.000624181586317718,0.08540983498096466,0.050217412412166595
1772454505654246700,3.17224658203125,0.013531187549233437,0.08275756984949112,0.038708463311195374
1772454505664264400,3.182264404296875,0.015200989320874214,0.0672726184129715,0.02406720258295536
1772454505674282500,3.192282470703125,0.017877092584967613,0.041236236691474915,0.012951097451150417
1772454505684299500,3.202299560546875,0.011997899040579796,0.012086073867976665,0.00532913114875555
1772454505694318000,3.212318115234375,0.005885573104023933,-0.011881821788847446,-0.004189341329038143
1772454505704336000,3.2223359375,-0.0013805953785777092,-0.03562736511230469,-0.018024463206529617
1772454505714354000,3.23235400390625,-0.005623077508062124,-0.05198158696293831,-0.0401533842086792
1772454505724371000,3.242370849609375,-0.009857770055532455,-0.06312611699104309,-0.06720896810293198
1772454505734389000,3.252388916015625,-0.01198519766330719,-0.07820786535739899,-0.09051617234945297
1772454505744407000,3.262406982421875,-0.01204272173345089,-0.08417601138353348,-0.09678392112255096
1772454505754425000,3.272425048828125,-0.002952906070277095,-0.07036934792995453,-0.08116477727890015
1772454505764443000,3.28244287109375,0.012581312097609043,-0.05034290999174118,-0.04037712886929512
1772454505774460200,3.292460205078125,0.026465272530913353,-0.02543492242693901,0.011907980777323246
1772454505784478000,3.30247802734375,0.02801203727722168,0.00389473675750196,0.05548954755067825
1772454505794496000,3.31249609375,0.03267969191074371,0.031673889607191086,0.08627896755933762
1772454505804514000,3.32251416015625,0.03754768520593643,0.04510394483804703,0.09699179977178574
1772454505814531000,3.332531005859375,0.030872892588377,0.04429300129413605,0.0882248803973198
1772454505824548900,3.342548828125,0.018410097807645798,0.03138172999024391,0.061226554214954376
1772454505834567200,3.352567138671875,0.0015552542172372341,0.018007352948188782,0.02674003504216671
1772454505844585000,3.3625849609375,-0.011048953980207443,0.006931266747415066,-0.008320479653775692
1772454505854603000,3.37260302734375,-0.01076926477253437,0.004208698868751526,-0.03463631123304367
1772454505864620000,3.3826201171875,0.0002602175809442997,-0.0008941839914768934,-0.04504501074552536
1772454505874638000,3.39263818359375,0.009609948843717575,0.0021663184743374586,-0.04904961958527565
1772454505884655900,3.40265576171875,0.026990003883838654,0.00008372659794986248,-0.0330464169383049
1772454505894674200,3.412674072265625,0.03942026197910309,0.01346291322261095,-0.015663838014006615
1772454505904691000,3.42269091796875,0.042834967374801636,0.04088681563735008,0.0009691996965557337
1772454505914709000,3.432708984375,0.032380860298871994,0.04662728309631348,0.013309321366250515
1772454505924727000,3.44272705078125,0.017585134133696556,0.03962796553969383,0.022353149950504303
1772454505934745000,3.4527451171875,-0.0010576017666608095,0.03180253878235817,0.023389149457216263
1772454505944763000,3.462762939453125,-0.012906803749501705,0.03270268812775612,0.01692299358546734
1772454505954780000,3.47277978515625,-0.009980417788028717,0.03470136970281601,0.005524998996406794
1772454505964798000,3.4827978515625,-0.005253307055681944,0.03668516129255295,-0.004719915334135294
1772454505974816000,3.49281591796875,0.009955568239092827,0.04952319711446762,-0.008616904728114605
1772454505984834000,3.502833984375,0.017651038244366646,0.05603489279747009,-0.0012870864011347294
1772454505994850800,3.512850830078125,0.017544979229569435,0.05618215352296829,0.009220232255756855
1772454506004868900,3.522868896484375,0.017298903316259384,0.054396506398916245,0.012610969133675098
1772454506014887000,3.532886962890625,0.012546120211482048,0.03847720846533775,0.014472450129687786
1772454506024905000,3.542905029296875,0.006291153375059366,0.02773135155439377,0.01296110637485981
1772454506034923000,3.552923095703125,0.003848845139145851,0.028009381145238876,0.010650785639882088
1772454506044940000,3.56293994140625,0.004853921942412853,0.02802589163184166,0.0121370954439044
1772454506054957800,3.572957763671875,0.010386420413851738,0.039431143552064896,0.019290219992399216
1772454506064976000,3.582975830078125,0.01093955896794796,0.05914253368973732,0.024598699063062668
1772454506074994200,3.592994140625,0.010000119917094707,0.06533091515302658,0.0291695948690176
1772454506085012000,3.603011962890625,0.008564676158130169,0.06232127547264099,0.03115018829703331
1772454506095029000,3.613029052734375,0.002643126994371414,0.05332913622260094,0.033521413803100586
1772454506105047000,3.623047119140625,-0.006354895420372486,0.05081324651837349,0.029422273859381676
1772454506115064800,3.63306494140625,-0.0061125666834414005,0.04709972068667412,0.021663377061486244
1772454506125083000,3.643082763671875,0.001501943334005773,0.0320853516459465,0.012514620088040829
1772454506135100000,3.653099853515625,0.016315434128046036,0.012372377328574657,0.004236745182424784
1772454506145118000,3.663117919921875,0.032866448163986206,-0.009531057439744473,-0.0007947649573907256
1772454506155135700,3.6731357421875,0.0399591401219368,-0.033823587000370026,-0.011645615100860596
1772454506165154000,3.683154052734375,0.02853817492723465,-0.045914072543382645,-0.02575637400150299
1772454506175170800,3.6931708984375,0.007572761736810207,-0.031242746859788895,-0.04074152186512947
1772454506185189000,3.703189208984375,-0.01639808528125286,-0.036707554012537,-0.05697828531265259
1772454506195207000,3.71320703125,-0.033918220549821854,-0.0376116968691349,-0.054861605167388916
1772454506205225000,3.723224853515625,-0.03384152427315712,-0.010022412985563278,-0.03666369244456291
1772454506215242800,3.73324267578125,-0.023685405030846596,0.02561040036380291,-0.007481361273676157
1772454506225260000,3.743260009765625,-0.004509048070758581,0.04533643648028374,0.034538526087999344
1772454506235277800,3.75327783203125,0.009432913735508919,0.06449282169342041,0.07928083837032318
1772454506245296000,3.763296142578125,0.021368667483329773,0.08080548048019409,0.1179046630859375
1772454506255314000,3.77331396484375,0.025211315602064133,0.07354384660720825,0.14455507695674896
1772454506265332000,3.78333203125,0.019634922966361046,0.047451529651880264,0.1467529833316803
1772454506275349000,3.793348876953125,0.01381799764931202,0.02395791932940483,0.12462624907493591
1772454506285367000,3.803366943359375,0.0023815855383872986,0.0015500804875046015,0.08327854424715042
1772454506295384800,3.813384765625,-0.0030755926854908466,-0.01848781295120716,0.02834070660173893
1772454506305403000,3.82340283203125,-0.007448236923664808,-0.033910445868968964,-0.038606103509664536
1772454506315420000,3.833419921875,0.001306762918829918,-0.05596994608640671,-0.09639845043420792
1772454506325438000,3.84343798828125,0.007622183300554752,-0.08162817358970642,-0.1358739584684372
1772454506335456000,3.8534560546875,0.016740845516324043,-0.10322853922843933,-0.13481508195400238
1772454506345474000,3.86347412109375,0.02947475202381611,-0.07948725670576096,-0.0938468724489212
1772454506355491800,3.873491943359375,0.038652677088975906,-0.04809071496129036,-0.0240724328905344
1772454506365509000,3.883509033203125,0.04236459359526634,-0.017911504954099655,0.05622347071766853
1772454506375527000,3.89352685546875,0.04398617520928383,0.024022884666919708,0.12477639317512512
1772454506385545000,3.903544921875,0.044564612209796906,0.05641411617398262,0.1795347034931183
1772454506395563000,3.91356298828125,0.03791939839720726,0.05972255766391754,0.19759944081306458
1772454506405580000,3.923580078125,0.03260639309883118,0.043496184051036835,0.19035671651363373
1772454506415597800,3.933597900390625,0.03110336884856224,0.011307630687952042,0.16395112872123718
1772454506425616100,3.9436162109375,0.029923856258392334,-0.009416023269295692,0.10953688621520996
1772454506435634000,3.953634033203125,0.025889242067933083,-0.011592632159590721,0.05206797271966934
1772454506445652000,3.96365185546875,0.014117537997663021,-0.011468528769910336,-0.013001042418181896
1772454506455669000,3.9736689453125,-0.0036528417840600014,-0.024920683354139328,-0.06953008472919464
1772454506465687000,3.98368701171875,-0.019067484885454178,-0.04948355257511139,-0.11866647005081177
1772454506475704800,3.993704833984375,-0.03421024605631828,-0.0886264219880104,-0.1554991453886032
1772454506485723100,4.00372314453125,-0.04304182156920433,-0.13295365869998932,-0.17735224962234497
1772454506495740000,4.013739990234375,-0.04216902703046799,-0.17132769525051117,-0.1822969764471054
1772454506505758000,4.023758056640625,-0.03392547741532326,-0.19007821381092072,-0.16676968336105347
1772454506515776000,4.03377587890625,-0.01849541813135147,-0.15347598493099213,-0.11295368522405624
1772454506525794000,4.0437939453125,0.005638945382088423,-0.044902902096509933,-0.03505701944231987
1772454506535811800,4.053811767578125,0.021496500819921494,0.0736522302031517,0.056729722768068314
1772454506545829000,4.0638291015625,0.028962139040231705,0.15084154903888702,0.14301134645938873
1772454506555847000,4.073846923828125,0.027965787798166275,0.19322335720062256,0.2075193226337433
1772454506565865000,4.083864990234375,0.025633390992879868,0.19132079184055328,0.2460065335035324
1772454506575883000,4.093883056640625,0.026718303561210632,0.14654295146465302,0.24000489711761475
1772454506585900000,4.103900146484375,0.026356380432844162,0.08039668947458267,0.2070663869380951
1772454506595917800,4.113917724609375,0.0225303303450346,0.015430225990712643,0.1405729055404663
1772454506605936000,4.12393603515625,0.014896112494170666,-0.0428629070520401,0.05832543596625328
1772454506615954000,4.133953857421875,-0.00024063896853476763,-0.08695288002490997,-0.03027276135981083
1772454506625972000,4.143971923828125,-0.01891419291496277,-0.11224119365215302,-0.10678724199533463
1772454506635989000,4.153989013671875,-0.03299509361386299,-0.12320569902658463,-0.15222972631454468
1772454506646007000,4.164007080078125,-0.04213426262140274,-0.11126355081796646,-0.167819082736969
1772454506656024800,4.17402490234375,-0.03908394277095795,-0.08202898502349854,-0.14732198417186737
1772454506666043100,4.184043212890625,-0.02646402269601822,-0.029734618961811066,-0.09168374538421631
1772454506676060000,4.194059814453125,-0.010243033990263939,0.03172876313328743,-0.01816551387310028
1772454506686078000,4.204077880859375,0.0071543315425515175,0.08020255714654922,0.0602472722530365
1772454506696096000,4.214095947265625,0.016831204295158386,0.10990156978368759,0.12881866097450256
1772454506706113800,4.22411376953125,0.022553272545337677,0.11672485619783401,0.16753995418548584
1772454506716131800,4.2341318359375,0.021971797570586205,0.10333716124296188,0.17706362903118134
1772454506726148900,4.24414892578125,0.016489680856466293,0.07036163657903671,0.15583983063697815
1772454506736167000,4.2541669921875,0.004584705922752619,0.04800065606832504,0.10627993941307068
1772454506746184700,4.264184814453125,-0.0142244016751647,0.025994688272476196,0.03281451016664505
1772454506756203000,4.274203125,-0.0355372354388237,-0.010719885118305683,-0.0445101335644722
1772454506766219800,4.2842197265625,-0.04776860028505325,-0.05302126705646515,-0.11130008101463318
1772454506776238000,4.294238037109375,-0.0529099740087986,-0.08199993520975113,-0.17303656041622162
1772454506786256000,4.304255859375,-0.055340640246868134,-0.11100974678993225,-0.22366085648536682
1772454506796274000,4.31427392578125,-0.04416271671652794,-0.13708850741386414,-0.24513360857963562
1772454506806291700,4.324291748046875,-0.029536902904510498,-0.13241492211818695,-0.2367798089981079
1772454506816309000,4.33430908203125,-0.015598336234688759,-0.09859462082386017,-0.20437173545360565
1772454506826326800,4.344326904296875,-0.012175909243524075,-0.07360485196113586,-0.14077544212341309
1772454506836344800,4.3543447265625,-0.006732255220413208,-0.05332835763692856,-0.05471678450703621
1772454506846363000,4.36436279296875,0.0029621839057654142,0.014129247516393661,0.03980918973684311
1772454506856380000,4.3743798828125,0.013241633772850037,0.0945141389966011,0.1358182579278946
1772454506866398000,4.38439794921875,0.01921963132917881,0.1452081948518753,0.19881878793239594
1772454506876416000,4.394416015625,0.02662746049463749,0.1490548551082611,0.22841686010360718
1772454506886433800,4.404433837890625,0.03409336879849434,0.12280035018920898,0.22153471410274506
1772454506896451800,4.414451904296875,0.03983569145202637,0.08523248881101608,0.1769888699054718
1772454506906468900,4.42446875,0.04218193516135216,0.04857087880373001,0.10101766139268875
1772454506916487000,4.43448681640625,0.030171234160661697,0.003527215914800763,0.006215193308889866
1772454506926505000,4.4445048828125,0.02031034603714943,-0.04378490522503853,-0.08878722041845322
1772454506936523000,4.45452294921875,0.008223781362175941,-0.07272147387266159,-0.1642124354839325
1772454506946539800,4.464539794921875,-0.0012884978204965591,-0.09039101749658585,-0.2110702246427536
1772454506956558000,4.47455810546875,-0.005085879471153021,-0.09457828849554062,-0.2346375584602356
1772454506966575900,4.484575927734375,0.0010337985586374998,-0.09691175073385239,-0.2233385592699051
1772454506976594000,4.494593994140625,0.017983268946409225,-0.1224791556596756,-0.17796002328395844
1772454506986612000,4.504612060546875,0.034290604293346405,-0.12034143507480621,-0.09824921935796738
1772454506996629000,4.51462890625,0.0488249734044075,-0.029689036309719086,0.004343722946941853
1772454507006646800,4.524646728515625,0.0520162396132946,0.09121208637952805,0.11546997725963593
1772454507016665000,4.5346650390625,0.03496946021914482,0.17932672798633575,0.19888536632061005
1772454507026683000,4.544682861328125,0.015322523191571236,0.2056637853384018,0.24424059689044952
1772454507036700000,4.554699951171875,0.0069802082143723965,0.17133033275604248,0.24932146072387695
1772454507046718000,4.564718017578125,0.009699029847979546,0.11368700861930847,0.2079135626554489
1772454507056736000,4.574736083984375,0.01996413618326187,0.04850561171770096,0.13776735961437225
1772454507066753800,4.58475390625,0.030038075521588326,-0.0038039337377995253,0.050413280725479126
1772454507076772000,4.594772216796875,0.03384166210889816,-0.04478467255830765,-0.030939701944589615
1772454507086788900,4.604788818359375,0.030187537893652916,-0.06316474825143814,-0.0932890996336937
1772454507096807000,4.614806884765625,0.022110329940915108,-0.060551371425390244,-0.13906092941761017
1772454507106825000,4.624824951171875,0.010744491592049599,-0.05130673944950104,-0.16774822771549225
1772454507116843000,4.634843017578125,0.002789250109344721,-0.053673505783081055,-0.17759159207344055
1772454507126859800,4.64485986328125,0.006108347326517105,-0.05684080347418785,-0.16676796972751617
1772454507136878000,4.654878173828125,-0.002493597101420164,-0.06581804156303406,-0.14013750851154327
1772454507146896000,4.664895751953125,-0.008435109630227089,-0.0631500855088234,-0.1049366369843483
1772454507156914000,4.674913818359375,-0.026109110563993454,-0.06498099118471146,-0.06619465351104736
1772454507166931000,4.684930908203125,-0.03702833876013756,-0.06250638514757156,-0.01851635053753853
1772454507176949000,4.694948974609375,-0.03455626592040062,-0.009832792915403843,0.03447587415575981
1772454507186966800,4.704966796875,-0.025253847241401672,0.0569467693567276,0.07586778700351715
1772454507196985000,4.714985107421875,-0.00839054025709629,0.09037050604820251,0.09883647412061691
1772454507207003000,4.7250029296875,0.004104479216039181,0.09009885787963867,0.10024288296699524
1772454507217020200,4.735020263671875,0.014428624883294106,0.07102714478969574,0.09037018567323685
1772454507227038000,4.745037841796875,0.019348548725247383,0.057308129966259,0.06978102028369904
1772454507237056000,4.755055908203125,0.013225569389760494,0.04416384920477867,0.039336759597063065
1772454507247073800,4.76507373046875,0.0018626594683155417,0.027825355529785156,0.0022298700641840696
1772454507257091000,4.775091064453125,-0.011576373130083084,0.0016438111197203398,-0.03814367949962616
1772454507267108900,4.78510888671875,-0.020141100510954857,-0.022514255717396736,-0.07344628125429153
1772454507277127000,4.795126953125,-0.026519598439335823,-0.054040998220443726,-0.10254842042922974
1772454507287145000,4.80514501953125,-0.027019208297133446,-0.08476375788450241,-0.1219351664185524
1772454507297163000,4.8151630859375,-0.02419753186404705,-0.09369495511054993,-0.11874982714653015
1772454507307180000,4.825179931640625,-0.014355819672346115,-0.07424429059028625,-0.09544610232114792
1772454507317198000,4.835197998046875,-0.0037344112060964108,-0.05278852581977844,-0.04386144131422043
1772454507327215900,4.8452158203125,0.002411365509033203,-0.00022039073519408703,0.01816863752901554
1772454507337234000,4.85523388671875,0.013674387708306313,0.051021479070186615,0.08046738803386688
1772454507347251000,4.8652509765625,0.021261734887957573,0.07804057747125626,0.12322364002466202
1772454507357269000,4.87526904296875,0.030949467793107033,0.08853050321340561,0.14341478049755096
1772454507367287000,4.885287109375,0.03593064472079277,0.07247324287891388,0.1343965232372284
1772454507377305000,4.89530517578125,0.03423415124416351,0.042466625571250916,0.0962127223610878
1772454507387323000,4.905322998046875,0.023823855444788933,0.002991654211655259,0.05012645944952965
1772454507397340000,4.91533984375,0.00391992274671793,-0.0227360799908638,-0.000040572136640548706
1772454507407358000,4.92535791015625,-0.010565277189016342,-0.03334211930632591,-0.042007461190223694
1772454507417376000,4.9353759765625,-0.019309647381305695,-0.02352440543472767,-0.07444170862436295
1772454507427393800,4.945393798828125,-0.020889701321721077,-0.007248495705425739,-0.09401993453502655
1772454507437410800,4.955410888671875,-0.023765938356518745,0.0037016577553004026,-0.09690584987401962
1772454507447428900,4.965428955078125,-0.019561873748898506,0.013443767093122005,-0.07173365354537964
1772454507457447000,4.975447021484375,-0.014683179557323456,0.03355249762535095,-0.03498747944831848
1772454507467465000,4.98546484375,-0.013638421893119812,0.04209618642926216,0.0022328572813421488
1772454507477483000,4.99548291015625,-0.0060604047030210495,0.034370388835668564,0.03864141181111336
1772454507487500000,5.0055,0.003072905819863081,0.019574664533138275,0.06738331913948059
1772454507497517800,5.015517822265625,0.01609661802649498,0.015435284934937954,0.08353717625141144
1772454507507536000,5.025535888671875,0.024894369766116142,0.010765697807073593,0.08602137118577957
1772454507517554000,5.035553955078125,0.03393767774105072,-0.0015152266714721918,0.07671474665403366
1772454507527571000,5.045571044921875,0.036129459738731384,-0.011855215765535831,0.061741385608911514
1772454507537588700,5.055588623046875,0.027450786903500557,-0.020798616111278534,0.03646860644221306
1772454507547607000,5.06560693359375,0.017685772851109505,-0.03184647485613823,0.010501188226044178
1772454507557624800,5.075624755859375,0.0018660363275557756,-0.03788118064403534,-0.019521521404385567
1772454507567643000,5.085642822265625,-0.009429228492081165,-0.039193056523799896,-0.05021551996469498
1772454507577660000,5.095659912109375,-0.013584929518401623,-0.04172869771718979,-0.06729570776224136
1772454507587678000,5.105677978515625,-0.015472311526536942,-0.02422613464295864,-0.06806749105453491
1772454507597695700,5.11569580078125,-0.006699003279209137,0.012397962622344494,-0.05869276821613312
1772454507607714000,5.125714111328125,0.0025746559258550406,0.029401715844869614,-0.030254200100898743
1772454507617730800,5.135730712890625,0.010775288566946983,0.02448149397969246,0.001382998889312148
1772454507627748900,5.145748779296875,0.014033399522304535,0.012810190208256245,0.029157638549804688
1772454507637767000,5.155766845703125,0.012042146176099777,-0.008461515419185162,0.04836137592792511
1772454507647785000,5.165784912109375,0.007370960898697376,-0.03423558920621872,0.05143732577562332
1772454507657802800,5.175802734375,0.003378930501639843,-0.053330715745687485,0.04725337028503418
1772454507667820000,5.185820068359375,-0.00513865752145648,-0.037572260946035385,0.024786148220300674
1772454507677837800,5.195837890625,-0.01395502407103777,-0.02523251809179783,0.0025136948097497225
1772454507687855900,5.20585595703125,-0.012821849435567856,-0.004125101026147604,-0.01387087069451809
1772454507697873700,5.215873779296875,-0.01085502840578556,0.027535879984498024,-0.016972152516245842
1772454507707890700,5.225890625,-0.005244547501206398,0.04489090293645859,-0.009078542701900005
1772454507717908700,5.23590869140625,0.00268282787874341,0.0398532934486866,0.003152365330606699
1772454507727926800,5.2459267578125,0.006101527716964483,0.016838518902659416,0.02312793768942356
1772454507737944600,5.255944580078125,0.009284148924052715,-0.012925757095217705,0.0304334107786417
1772454507747961900,5.2659619140625,0.01132173277437687,-0.034836914390325546,0.03729530796408653
1772454507757979600,5.275979736328125,0.006463241297751665,-0.039658866822719574,0.02888375334441662
1772454507767997700,5.285997802734375,-0.003100968897342682,-0.022466035559773445,0.01980743370950222
1772454507778015500,5.296015380859375,-0.015532765537500381,0.015517016872763634,0.007618748117238283
1772454507788033800,5.30603369140625,-0.028961755335330963,0.05654514208436012,-0.01038049254566431
1772454507798050600,5.316050537109375,-0.035442568361759186,0.09048421680927277,-0.024471065029501915
1772454507808068900,5.32606884765625,-0.030123436823487282,0.08552861213684082,-0.031025638803839684
1772454507818086700,5.336086669921875,-0.014128463342785835,0.046650178730487823,-0.020611515268683434
1772454507828104700,5.346104736328125,0.006172814406454563,0.016317041590809822,0.00868432130664587
1772454507838122500,5.35612255859375,0.02133225090801716,0.003970635123550892,0.04783467948436737
1772454507848139800,5.366139892578125,0.02097298949956894,-0.0012174693401902914,0.07552703469991684
1772454507858157600,5.376157470703125,0.01145563181489706,-0.019879050552845,0.0876864492893219
1772454507868176000,5.38617578125,0.0026384382508695126,-0.04233482480049133,0.08068260550498962
1772454507878193700,5.396193603515625,-0.006301746238023043,-0.04856768622994423,0.06083926185965538
1772454507888210700,5.406210693359375,-0.015398038551211357,-0.047824665904045105,0.029925288632512093
1772454507898228700,5.416228759765625,-0.022841336205601692,-0.021852707490324974,-0.0087838564068079
1772454507908246800,5.426246826171875,-0.038141727447509766,0.012725244276225567,-0.03849674388766289
1772454507918264600,5.4362646484375,-0.05026158690452576,0.03541698306798935,-0.06594564765691757
1772454507928281900,5.44628173828125,-0.050427500158548355,0.03049572929739952,-0.07654955983161926
1772454507938299600,5.456299560546875,-0.04399455711245537,0.005732581950724125,-0.07269679009914398
1772454507948317700,5.466317626953125,-0.023744147270917892,-0.016922131180763245,-0.057920511811971664
1772454507958335700,5.476335693359375,0.0035200584679841995,-0.04084770008921623,-0.032302748411893845
1772454507968353800,5.486353759765625,0.017024416476488113,-0.05563916265964508,-0.0008867696742527187
1772454507978370600,5.49637060546875,0.023396778851747513,-0.03386569023132324,0.026001961901783943
1772454507988388900,5.506388916015625,0.015994256362318993,0.018522415310144424,0.04682521894574165
1772454507998406700,5.51640673828125,0.0012386235175654292,0.06760527938604355,0.051665402948856354
1772454508008424700,5.5264248046875,-0.016064200550317764,0.08407746255397797,0.04223141819238663
1772454508018441700,5.536441650390625,-0.02295011840760708,0.0628853589296341,0.026311436668038368
1772454508028459800,5.546459716796875,-0.01670580357313156,0.027861591428518295,0.008858143351972103
1772454508038477600,5.5564775390625,-0.010781656950712204,-0.014983844943344593,-0.0055004809983074665
1772454508048495900,5.566495849609375,0.0007080187788233161,-0.05533153563737869,-0.01915663853287697
1772454508058513700,5.576513671875,0.009007282555103302,-0.07133875787258148,-0.028829846531152725
1772454508068530700,5.58653076171875,0.010937009938061237,-0.06633547693490982,-0.035558588802814484
1772454508078548700,5.596548828125,0.008532174862921238,-0.04684700071811676,-0.02868071012198925
1772454508088566800,5.60656689453125,0.001752565847709775,-0.023170165717601776,-0.027511315420269966
1772454508098584600,5.61658447265625,-0.012958374805748463,-0.004085415042936802,-0.019944194704294205
1772454508108601600,5.6266015625,-0.028767162933945656,0.008662071079015732,-0.020673101767897606
1772454508118619600,5.63661962890625,-0.033588435500860214,0.007220792584121227,-0.02681083045899868
1772454508128637700,5.6466376953125,-0.030241375789046288,-0.002505070995539427,-0.030341649428009987
1772454508138655700,5.65665576171875,-0.009197629988193512,-0.011742796748876572,-0.023898441344499588
1772454508148673800,5.666673828125,0.00517997844144702,-0.00938749685883522,-0.00847660843282938
1772454508158690800,5.67669091796875,0.023484112694859505,0.004163969308137894,0.020986920222640038
1772454508168708600,5.68670849609375,0.02976064942777157,0.020541612058877945,0.04639560729265213
1772454508178726700,5.6967265625,0.02946152165532112,0.02641177363693714,0.06870098412036896
1772454508188744700,5.70674462890625,0.02475758083164692,0.028971070423722267,0.06833053380250931
1772454508198761700,5.71676171875,0.01160033605992794,0.028838690370321274,0.05963511765003204
1772454508208779500,5.726779541015625,-0.003657445777207613,0.023332873359322548,0.03670690208673477
1772454508218797600,5.736797607421875,-0.01705254800617695,0.016009194776415825,0.006328673101961613
1772454508228816000,5.74681591796875,-0.030529208481311798,0.009655159898102283,-0.01520325057208538
1772454508238832600,5.75683251953125,-0.04140361770987511,-0.007793615572154522,-0.04301706701517105
1772454508248850700,5.7668505859375,-0.04227420315146446,-0.027594484388828278,-0.06951045989990234
1772454508258868700,5.77686865234375,-0.029547879472374916,-0.05420771241188049,-0.0837174728512764
1772454508268886500,5.786886474609375,-0.007617814000695944,-0.07415212690830231,-0.07816105335950851
1772454508278904600,5.796904541015625,0.015881339088082314,-0.08064118772745132,-0.061112433671951294
1772454508288921600,5.806921630859375,0.026674598455429077,-0.06762312352657318,-0.027708403766155243
1772454508298939600,5.816939697265625,0.02149096503853798,-0.03156602382659912,0.006809432990849018
1772454508308957700,5.826957763671875,0.008247066289186478,0.006463916040956974,0.038355108350515366
1772454508318975700,5.836975830078125,-0.006266212090849876,0.030688803642988205,0.06371314078569412
1772454508328992500,5.846992431640625,-0.013202414847910404,0.05101671442389488,0.07728700339794159
1772454508339010800,5.8570107421875,-0.013678150251507759,0.05893642082810402,0.07520226389169693
1772454508349028600,5.867028564453125,-0.006347533781081438,0.04417824372649193,0.06419888138771057
1772454508359046700,5.877046630859375,0.0037066983059048653,0.019178086891770363,0.04909822717308998
1772454508369064400,5.887064453125,0.020476622506976128,-0.003455854021012783,0.040767326951026917
1772454508379081700,5.897081787109375,0.03993953764438629,-0.009375262074172497,0.0381196103990078
1772454508389099500,5.907099609375,0.05275386944413185,-0.0009926962666213512,0.03319276124238968
1772454508399117800,5.917117919921875,0.055246397852897644,0.014220069162547588,0.030076302587985992
1772454508409135600,5.927135498046875,0.04041419178247452,0.030617685988545418,0.023637311533093452
1772454508419152600,5.937152587890625,0.01632937788963318,0.034413501620292664,0.017693446949124336
1772454508429170700,5.947170654296875,-0.010250301100313663,0.021712087094783783,0.004170180764049292
1772454508439188700,5.957188720703125,-0.030374789610505104,-0.0017303896602243185,-0.010179604403674603
1772454508449206500,5.96720654296875,-0.041292689740657806,-0.029199298471212387,-0.03262019902467728
1772454508459224600,5.977224609375,-0.03995468467473984,-0.048958100378513336,-0.047538597136735916
1772454508469241600,5.98724169921875,-0.02523938938975334,-0.05553105100989342,-0.059569958597421646
1772454508479259600,5.997259765625,-0.016785889863967896,-0.06785615533590317,-0.07077599316835403
1772454508489277700,6.007277587890625,-0.009271513670682907,-0.08705940842628479,-0.07260479032993317
1772454508499295700,6.017295654296875,-0.008595270104706287,-0.09348133951425552,-0.06786257773637772
1772454508509312500,6.0273125,-0.006998172029852867,-0.07217498868703842,-0.04918050393462181
1772454508519330800,6.037330810546875,-0.009683273732662201,-0.037335749715566635,-0.019294574856758118
1772454508529348600,6.0473486328125,-0.012914753518998623,0.0032393743749707937,0.008300301618874073
1772454508539366700,6.05736669921875,-0.012084086425602436,0.030130093917250633,0.040522247552871704
1772454508549383700,6.0673837890625,-0.006252296268939972,0.05212860554456711,0.06197454407811165
1772454508559401700,6.077401611328125,0.010999984107911587,0.04886433854699135,0.07369451224803925
1772454508569419500,6.08741943359375,0.025590645149350166,0.026573680341243744,0.07540106773376465
1772454508579437800,6.097437744140625,0.035418909043073654,0.000037718797102570534,0.07010706514120102
1772454508589455600,6.10745556640625,0.04193992540240288,-0.02269875258207321,0.052587997168302536
1772454508599472600,6.11747265625,0.03690769150853157,-0.03902047872543335,0.032167647033929825
1772454508609490700,6.12749072265625,0.02324274554848671,-0.033335961401462555,0.0056777154095470905
1772454508619508700,6.1375087890625,-0.0015973361441865563,-0.0049282703548669815,-0.02335309237241745
1772454508629526500,6.147526611328125,-0.026185236871242523,0.019559761509299278,-0.04927656799554825
1772454508639543800,6.157543701171875,-0.04278168827295303,0.020541639998555183,-0.06715403497219086
1772454508649561600,6.1675615234375,-0.04824037104845047,0.010634147562086582,-0.07766447216272354
1772454508659579600,6.17757958984375,-0.04238542914390564,-0.00966448150575161,-0.07667328417301178
1772454508669597700,6.18759765625,-0.022549141198396683,-0.040618401020765305,-0.06312578171491623
1772454508679615700,6.19761572265625,0.0048893713392317295,-0.0642920657992363,-0.036527279764413834
1772454508689632800,6.2076328125,0.024758949875831604,-0.05233766511082649,-0.004017008934170008
1772454508699651000,6.217651123046875,0.03354956582188606,-0.033903226256370544,0.025753267109394073
1772454508709669000,6.227669189453125,0.031520772725343704,-0.010829865001142025,0.045388754457235336
1772454508719687000,6.23768701171875,0.024360625073313713,0.01730482093989849,0.0559845045208931
1772454508729704200,6.2477041015625,0.014047534205019474,0.042889807373285294,0.0590607188642025
1772454508739722000,6.257721923828125,0.0057437787763774395,0.05483274161815643,0.056353576481342316
1772454508749740000,6.267739990234375,-0.00773341441527009,0.0517333559691906,0.03796551376581192
1772454508759758000,6.277758056640625,-0.019783666357398033,0.028283437713980675,0.014467152766883373
1772454508769776000,6.287776123046875,-0.03367152065038681,-0.014262426644563675,-0.009549500420689583
1772454508779793200,6.297793212890625,-0.04227471724152565,-0.05306573957204819,-0.0328003391623497
1772454508789811200,6.307811279296875,-0.05244319885969162,-0.09058834612369537,-0.05234208330512047
1772454508799829000,6.3178291015625,-0.053486865013837814,-0.11474243551492691,-0.06946184486150742
1772454508809847000,6.327846923828125,-0.05501844733953476,-0.11962294578552246,-0.08377953618764877
1772454508819864000,6.337864013671875,-0.05467316135764122,-0.11027124524116516,-0.09615083038806915
1772454508829882000,6.347882080078125,-0.05389738082885742,-0.09167546033859253,-0.10011441260576248
1772454508839900000,6.35789990234375,-0.046881482005119324,-0.06875680387020111,-0.10087962448596954
1772454508849918200,6.367918212890625,-0.029658552259206772,-0.03530190885066986,-0.08568762242794037
1772454508859935000,6.37793505859375,-0.010604063980281353,0.0039136456325650215,-0.058233022689819336
1772454508869953300,6.387953369140625,0.00594375329092145,0.044438436627388,-0.017493050545454025
1772454508879971000,6.39797119140625,0.013206660747528076,0.09506324678659439,0.031692419201135635
1772454508889989000,6.407989013671875,0.018031509593129158,0.12275798618793488,0.08019711077213287
1772454508900007000,6.4180068359375,0.01928921416401863,0.11291203647851944,0.1129390075802803
1772454508910024200,6.428024169921875,0.022616567090153694,0.0703110471367836,0.1306982934474945
1772454508920042000,6.4380419921875,0.025517692789435387,0.021765893325209618,0.12056539207696915
1772454508930060000,6.44806005859375,0.016804629936814308,-0.010341976769268513,0.0778682604432106
1772454508940078000,6.458078125,0.003161406610161066,-0.03980854153633118,0.020703447982668877
1772454508950094800,6.4680947265625,-0.013701729476451874,-0.06368458271026611,-0.042309340089559555
1772454508960113200,6.478113037109375,-0.028686175122857094,-0.07264318317174911,-0.10012974590063095
1772454508970131200,6.488131103515625,-0.03926105424761772,-0.06785508990287781,-0.1344301998615265
1772454508980149000,6.49814892578125,-0.04279739037156105,-0.05879528447985649,-0.15246222913265228
1772454508990166000,6.508166015625,-0.045908231288194656,-0.05032243952155113,-0.14419551193714142
1772454509000184000,6.51818408203125,-0.05172675848007202,-0.04271376505494118,-0.12446966022253036
1772454509010202000,6.5282021484375,-0.05594387650489807,-0.03881916031241417,-0.09730595350265503
1772454509020220200,6.53822021484375,-0.05875355750322342,-0.04606082662940025,-0.0731099471449852
1772454509030238200,6.54823828125,-0.05394255742430687,-0.0630991980433464,-0.04476698860526085
1772454509040255000,6.5582548828125,-0.04780261963605881,-0.06952112913131714,-0.012320850975811481
1772454509050273000,6.56827294921875,-0.030144264921545982,-0.057772859930992126,0.029553361237049103
1772454509060291000,6.578291015625,-0.0067044529132544994,-0.005208718590438366,0.08312231302261353
1772454509070309000,6.58830908203125,0.017853086814284325,0.0808798223733902,0.1401349902153015
1772454509080326100,6.598326171875,0.02872643992304802,0.14681382477283478,0.1862543821334839
1772454509090344000,6.608343994140625,0.050599515438079834,0.17713870108127594,0.21869061887264252
1772454509100362000,6.618362060546875,0.07312794774770737,0.17469418048858643,0.230930894613266
1772454509110380300,6.62838037109375,0.09187713265419006,0.14069627225399017,0.22417472302913666
1772454509120398000,6.638398193359375,0.1050988957285881,0.09593972563743591,0.19558851420879364
1772454509130414800,6.648414794921875,0.09766735136508942,0.05350225791335106,0.14989319443702698
1772454509140433200,6.65843310546875,0.07877963036298752,0.01133961882442236,0.09056581556797028
1772454509150451000,6.668450927734375,0.052947498857975006,-0.022975478321313858,0.018859408795833588
1772454509160469000,6.678468994140625,0.02489342913031578,-0.04651810601353645,-0.059548232704401016
1772454509170486000,6.688486083984375,0.003699726425111294,-0.04728882387280464,-0.12715710699558258
1772454509180504000,6.698504150390625,-0.01358378678560257,-0.057208526879549026,-0.18189294636249542
1772454509190521900,6.70852197265625,-0.02393096685409546,-0.09250712394714355,-0.21410946547985077
1772454509200540200,6.7185400390625,-0.019544323906302452,-0.11465346813201904,-0.1971246898174286
1772454509210558000,6.728557861328125,-0.0036210177931934595,-0.07521924376487732,-0.13541312515735626
1772454509220575000,6.738574951171875,0.014819071628153324,-0.02694012224674225,-0.04342060536146164
1772454509230593000,6.748593017578125,0.02746535651385784,0.01782681792974472,0.05155224725604057
1772454509240611000,6.758611083984375,0.0324428528547287,0.0556812584400177,0.130556121468544
1772454509250628900,6.76862890625,0.035797104239463806,0.09054230153560638,0.17800167202949524
1772454509260646100,6.778646240234375,0.02958485297858715,0.09897943586111069,0.19134391844272614
1772454509270664000,6.788663818359375,0.015406716614961624,0.09500227123498917,0.1600847989320755
1772454509280682000,6.798681884765625,-0.010101943276822567,0.0824151337146759,0.10571283102035522
1772454509290700000,6.808699951171875,-0.022031040862202644,0.046986036002635956,0.034161414951086044
1772454509300717000,6.818717041015625,-0.029140539467334747,0.00600610114634037,-0.028745409101247787
1772454509310735000,6.828735107421875,-0.02235853299498558,-0.023691341280937195,-0.07504739612340927
1772454509320753200,6.838753173828125,-0.010932821780443192,-0.037244703620672226,-0.10497534275054932
1772454509330771000,6.84877099609375,0.0017089378088712692,-0.04751784726977348,-0.11269078403711319
1772454509340789000,6.8587890625,0.012844099663197994,-0.05989542230963707,-0.10143747180700302
1772454509350806000,6.868805908203125,0.012950359843671322,-0.0747380182147026,-0.07230222225189209
1772454509360824000,6.878823974609375,0.010855079628527164,-0.08391845971345901,-0.024439610540866852
1772454509370841900,6.888841796875,0.009281417354941368,-0.05204548314213753,0.028203094378113747
1772454509380860200,6.898860107421875,0.0026727640070021152,0.010866621509194374,0.06986553966999054
1772454509390877000,6.908876953125,0.0033603922929614782,0.05539094656705856,0.10077524930238724
1772454509400895200,6.918895263671875,0.01525077037513256,0.0914807990193367,0.12175051122903824
1772454509410913000,6.9289130859375,0.032961856573820114,0.12590773403644562,0.13365590572357178
1772454509420931000,6.93893115234375,0.05430716648697853,0.13694894313812256,0.14233937859535217
1772454509430948900,6.948948974609375,0.06085561588406563,0.12675729393959045,0.1387324035167694
1772454509440966100,6.958966064453125,0.054514896124601364,0.10316220670938492,0.12015178054571152
1772454509450984000,6.96898388671875,0.041759684681892395,0.06486275047063828,0.08918694406747818
1772454509461002000,6.979001953125,0.020446624606847763,0.016000140458345413,0.05004925653338432
1772454509471020000,6.98902001953125,0.004503345116972923,-0.042233072221279144,0.006209363229572773
1772454509481037000,6.999037109375,-0.016176346689462662,-0.09496577829122543,-0.04982350021600723
1772454509491055000,7.00905517578125,-0.0421067476272583,-0.1277780532836914,-0.11429836601018906
1772454509501073200,7.0190732421875,-0.060611482709646225,-0.135920912027359,-0.1786404252052307
1772454509511091000,7.029091064453125,-0.062349725514650345,-0.1421942561864853,-0.21857771277427673
1772454509521108200,7.039108154296875,-0.03973636403679848,-0.13665011525154114,-0.2166130244731903
1772454509531126000,7.0491259765625,-0.0002573974197730422,-0.07893354445695877,-0.1627330183982849
1772454509541144000,7.05914404296875,0.03798501566052437,-0.0041993954218924046,-0.06642074137926102
1772454509551162000,7.069162109375,0.06269515305757523,0.04711758717894554,0.03885934129357338
1772454509561180200,7.07918017578125,0.06368612498044968,0.07158828526735306,0.13261011242866516
1772454509571197000,7.089197021484375,0.05234798416495323,0.08024808764457703,0.1948346048593521
1772454509581215200,7.09921533203125,0.03585348650813103,0.07037606090307236,0.21554535627365112
1772454509591233000,7.10923291015625,0.014023557305335999,0.051471877843141556,0.18204864859580994
1772454509601251000,7.1192509765625,-0.003813925664871931,0.01599455066025257,0.11243900656700134
1772454509611268000,7.12926806640625,-0.01567910797894001,-0.0017527551390230656,0.019464321434497833
1772454509621286100,7.1392861328125,-0.02131066471338272,-0.0015221508219838142,-0.06728982925415039
1772454509631304000,7.149303955078125,-0.023579677566885948,0.006029775366187096,-0.1299300491809845
1772454509641322200,7.159322265625,-0.02501886896789074,-0.005862248130142689,-0.1612209528684616
1772454509651339000,7.169339111328125,-0.013608820736408234,-0.03377323970198631,-0.1481727957725525
1772454509661357000,7.179357177734375,0.008210370317101479,-0.024685507640242577,-0.09238699823617935
1772454509671375000,7.189375,0.02891937643289566,0.023945944383740425,-0.016457080841064453
1772454509681393200,7.19939306640625,0.040253665298223495,0.06820635497570038,0.061887145042419434
1772454509691411000,7.209410888671875,0.03422506898641586,0.10349350422620773,0.12547358870506287
1772454509701428200,7.21942822265625,0.024073556065559387,0.12298359721899033,0.15312521159648895
1772454509711446300,7.2294462890625,0.024980628862977028,0.11866101622581482,0.16403192281723022
1772454509721464000,7.239464111328125,0.02890503592789173,0.08880193531513214,0.14673300087451935
1772454509731482400,7.249482421875,0.02841634675860405,0.044610507786273956,0.10641700029373169
1772454509741499100,7.2594990234375,0.02225276082754135,-0.014774298295378685,0.054091889411211014
1772454509751517200,7.26951708984375,0.00581866130232811,-0.061641938984394073,-0.004061693791300058
1772454509761535200,7.27953515625,-0.01945663057267666,-0.07921691983938217,-0.06577122956514359
1772454509771553300,7.28955322265625,-0.04024446755647659,-0.08007552474737167,-0.11770366877317429
1772454509781571000,7.299571044921875,-0.05887088179588318,-0.07119734585285187,-0.1599922776222229
1772454509791588000,7.309588134765625,-0.06818369030952454,-0.08427559584379196,-0.1835668385028839
1772454509801606100,7.319606201171875,-0.0624062605202198,-0.10270572453737259,-0.18183666467666626
1772454509811624200,7.329624267578125,-0.04551489278674126,-0.09080485254526138,-0.14447544515132904
1772454509821642200,7.339642333984375,-0.019911516457796097,-0.04706752300262451,-0.08427118510007858
1772454509831659000,7.349658935546875,0.0021746105048805475,-0.0035749084781855345,-0.014320862479507923
1772454509841677300,7.35967724609375,0.015995675697922707,0.02443706803023815,0.05506367236375809
1772454509851695400,7.3696953125,0.024957479909062386,0.05355740338563919,0.10881824791431427
1772454509861713200,7.379713134765625,0.033245429396629333,0.08365140110254288,0.13597479462623596
1772454509871731200,7.389731201171875,0.026682067662477493,0.09167949855327606,0.13447755575180054
1772454509881748200,7.399748291015625,0.012783864513039589,0.07615455985069275,0.10447587072849274
1772454509891766000,7.40976611328125,0.000010810908861458302,0.03893634304404259,0.06814715266227722
1772454509901784000,7.4197841796875,-0.009121899493038654,0.004319267347455025,0.017541956156492233
1772454509911802400,7.42980224609375,-0.01147373765707016,-0.026427993550896645,-0.0319795235991478
1772454509921819100,7.439819091796875,-0.007585692685097456,-0.0577387735247612,-0.07593844085931778
1772454509931837200,7.449837158203125,0.006693377625197172,-0.07136297225952148,-0.1007244810461998
1772454509941855200,7.459855224609375,0.007869184017181396,-0.06994881480932236,-0.11857347935438156
1772454509951873000,7.469873046875,0.012094289064407349,-0.06755329668521881,-0.11442160606384277
1772454509961890300,7.479890380859375,0.009389960207045078,-0.05481279641389847,-0.08955608308315277
1772454509971908000,7.489908203125,0.005373380612581968,-0.0327298641204834,-0.05311472341418266
1772454509981926100,7.499926025390625,-0.0027453331276774406,-0.0381343737244606,-0.019974369555711746
1772454509991944200,7.509944091796875,-0.007416783832013607,-0.031961433589458466,0.012632309459149837
1772454510001962200,7.519962158203125,-0.006881012115627527,0.0009988134261220694,0.05052074417471886
1772454510011979000,7.52997900390625,-0.005625331774353981,0.044635504484176636,0.07362394034862518
1772454510021997300,7.539997314453125,-0.0023106744047254324,0.06616080552339554,0.07817790657281876
1772454510032015000,7.55001513671875,-0.00033301091752946377,0.07851814478635788,0.07166274636983871
1772454510042033200,7.560033203125,0.0033568264916539192,0.0732559859752655,0.05634886771440506
1772454510052050200,7.57005029296875,0.00992311630398035,0.0461074560880661,0.03825002163648605
1772454510062068200,7.580068115234375,0.011854535900056362,0.013073612004518509,0.007838604040443897
1772454510072086000,7.5900859375,0.016709212213754654,-0.01977355033159256,-0.025005893781781197
1772454510082104300,7.600104248046875,0.015905538573861122,-0.05465321242809296,-0.05367277190089226
1772454510092121000,7.61012109375,0.009993587620556355,-0.07844989001750946,-0.07590297609567642
1772454510102139100,7.62013916015625,-0.005582121666520834,-0.07553615421056747,-0.08665982633829117
1772454510112157200,7.6301572265625,-0.0241645947098732,-0.05338291823863983,-0.08949050307273865
1772454510122175200,7.64017529296875,-0.039556846022605896,-0.028210435062646866,-0.08225411176681519
1772454510132193000,7.650193115234375,-0.04627120867371559,-0.015734856948256493,-0.06166281923651695
1772454510142210300,7.660210205078125,-0.043519385159015656,-0.015099710784852505,-0.022967932745814323
1772454510152228000,7.67022802734375,-0.024479646235704422,0.0028068514075130224,0.016060424968600273
1772454510162246100,7.68024609375,0.00354309706017375,0.01577967032790184,0.05523226410150528
1772454510172264200,7.69026416015625,0.029901469126343727,0.022355282679200172,0.08111473172903061
1772454510182281200,7.70028125,0.05381844937801361,0.02841661311686039,0.09257705509662628
1772454510192299000,7.710299072265625,0.05771305784583092,0.031530916690826416,0.09532463550567627
1772454510202317300,7.7203173828125,0.05207887291908264,0.05043216794729233,0.08453590422868729
1772454510212335000,7.730335205078125,0.03034854307770729,0.08621945977210999,0.06359253823757172
1772454510222353200,7.740353271484375,0.00654198694974184,0.11503381282091141,0.03522311896085739
1772454510232370200,7.7503701171875,-0.020769795402884483,0.12053217738866806,0.008576862514019012
1772454510242388200,7.76038818359375,-0.040383197367191315,0.08983709663152695,-0.014957004226744175
1772454510252406000,7.770406005859375,-0.0499412827193737,0.027720194309949875,-0.03837471455335617
1772454510262424300,7.78042431640625,-0.04483140632510185,-0.05503511801362038,-0.058878470212221146
1772454510272441000,7.790441162109375,-0.02826894260942936,-0.12231907993555069,-0.07606811076402664
1772454510282459100,7.800459228515625,-0.01099480502307415,-0.1628183275461197,-0.09298080950975418
1772454510292477200,7.810477294921875,-0.0006550827529281378,-0.164179727435112,-0.10086802393198013
1772454510302495200,7.8204951171875,0.007084214128553867,-0.12287731468677521,-0.10275972634553909
1772454510312512300,7.83051220703125,0.012857148423790932,-0.05462156608700752,-0.08419669419527054
1772454510322530300,7.8405302734375,0.010330921970307827,0.01779777742922306,-0.04811631888151169
1772454510332548000,7.850548095703125,0.011080068536102772,0.07271455228328705,0.006789007689803839
1772454510342566100,7.860566162109375,0.013078860007226467,0.10739188641309738,0.0613211914896965
1772454510352584200,7.870584228515625,0.018081607297062874,0.1038631945848465,0.10912785679101944
1772454510362601200,7.880601318359375,0.022328626364469528,0.07729628682136536,0.1268293261528015
1772454510372619300,7.890619384765625,0.02528606727719307,0.03665431588888168,0.11893439292907715
1772454510382637300,7.90063720703125,0.029469462111592293,0.013181186281144619,0.08905751258134842
1772454510392655000,7.910655029296875,0.029615670442581177,-0.001217725919559598,0.04837266728281975
1772454510402672400,7.92067236328125,0.016316471621394157,-0.017417462542653084,0.00152634980622679
1772454510412690200,7.930690185546875,-0.0019160618539899588,-0.03454025834798813,-0.03695206716656685
1772454510422708200,7.940708251953125,-0.016942577436566353,-0.05289052426815033,-0.06260622292757034
1772454510432726300,7.950726318359375,-0.022174891084432602,-0.06492854654788971,-0.07195951789617538
1772454510442744300,7.960744384765625,-0.02056477777659893,-0.059734005481004715,-0.0676296278834343
1772454510452761000,7.970760986328125,-0.014423529617488384,-0.03129277750849724,-0.05929633602499962
1772454510462779400,7.980779296875,-0.005101734772324562,-0.010278859175741673,-0.034873735159635544
1772454510472797200,7.990797119140625,0.007976516149938107,0.012708214111626148,0.009495859034359455
1772454510482815200,8.000815185546875,0.016147559508681297,0.048364728689193726,0.057811811566352844
1772454510492832300,8.010832275390625,0.023614797741174698,0.0639740526676178,0.0961964800953865
1772454510502850300,8.020850341796875,0.018410686403512955,0.055494822561740875,0.10924667119979858
1772454510512868000,8.0308681640625,0.011119750328361988,0.04703235998749733,0.10058580338954926
1772454510522886400,8.040886474609374,0.005689434241503477,0.03631318360567093,0.08619339019060135
1772454510532903200,8.050903076171876,0.0025053592398762703,0.022130785509943962,0.05507168918848038
1772454510542921000,8.0609208984375,-0.003120759967714548,0.0034998285118490458,0.015008662827312946
1772454510552939300,8.070939208984376,0.0014430988812819123,-0.0126658258959651,-0.019280867651104927
1772454510562957300,8.080957275390626,-0.0008870917372405529,-0.01432605367153883,-0.05128730088472366
1772454510572975000,8.09097509765625,-0.0055271172896027565,-0.01621982641518116,-0.06875523924827576
1772454510582992100,8.1009921875,-0.010168447159230709,-0.03201717883348465,-0.06900441646575928
1772454510593010200,8.11101025390625,-0.019193099811673164,-0.016651274636387825,-0.049975596368312836
1772454510603028200,8.1210283203125,-0.02878938429057598,0.00742927473038435,-0.021529633551836014
1772454510613046300,8.13104638671875,-0.03630721941590309,0.021751223132014275,0.0016872722189873457
1772454510623063000,8.14106298828125,-0.03277940675616264,0.019688347354531288,0.012821977958083153
1772454510633081000,8.1510810546875,-0.019190361723303795,-0.009405622258782387,0.024076228961348534
1772454510643099100,8.16109912109375,0.004098059609532356,-0.014086120761930943,0.03173483535647392
1772454510653117200,8.1711171875,0.025755418464541435,0.0049064792692661285,0.04290439933538437
1772454510663134200,8.18113427734375,0.040366675704717636,0.018816210329532623,0.050380658358335495
1772454510673152300,8.19115234375,0.041855379939079285,0.03126435726881027,0.05828731879591942
1772454510683170000,8.201170166015626,0.04145025461912155,0.03547423332929611,0.0559966005384922
1772454510693188000,8.21118798828125,0.03505813330411911,0.027194196358323097,0.04651175066828728
1772454510703205400,8.221205322265625,0.02958061173558235,0.006240994669497013,0.027316933497786522
1772454510713222400,8.231222412109375,0.02655499428510666,-0.014670412056148052,0.007758679334074259
1772454510723240400,8.241240478515625,0.024288950487971306,-0.02325853332877159,-0.0048787277191877365
1772454510733258500,8.251258544921875,0.01805555634200573,-0.020816415548324585,-0.01579715497791767
1772454510743276300,8.2612763671875,0.0070619117468595505,-0.015431531704962254,-0.025353170931339264
1772454510753293600,8.27129345703125,-0.004701270721852779,-0.005118973087519407,-0.03485426306724548
1772454510763311400,8.281311279296874,-0.018503492698073387,0.008158491924405098,-0.04251335933804512
1772454510773329400,8.291329345703126,-0.023135794326663017,0.011022987775504589,-0.05588775500655174
1772454510783347500,8.301347412109376,-0.025882286950945854,0.008590441197156906,-0.06745882332324982
1772454510793365500,8.311365478515626,-0.020839057862758636,-0.006748035084456205,-0.06899680197238922
1772454510803382300,8.32138232421875,-0.010465417057275772,-0.030694907531142235,-0.05607539787888527
1772454510813400600,8.331400634765625,-0.0005672462284564972,-0.031356699764728546,-0.022164301946759224
1772454510823418400,8.34141845703125,0.015102602541446686,-0.0071203503757715225,0.018439019098877907
1772454510833436400,8.3514365234375,0.0232409555464983,0.008603484369814396,0.05157433822751045
1772454510843453400,8.361453369140625,0.027421053498983383,0.014963113702833652,0.07072193175554276
1772454510853471500,8.371471435546875,0.029488999396562576,0.02924538217484951,0.08259696513414383
1772454510863489300,8.3814892578125,0.030026322230696678,0.036442335695028305,0.07920962572097778
1772454510873507600,8.391507568359375,0.01938246563076973,0.020856717601418495,0.0628141388297081
1772454510883524400,8.4015244140625,0.008758461102843285,0.01531495712697506,0.033703550696372986
1772454510893542700,8.411542724609374,-0.0004973550094291568,-0.0014552348293364048,-0.00011486523726489395
1772454510903560400,8.421560546875,-0.010150480084121227,-0.025807496160268784,-0.03391049802303314
1772454510913578500,8.43157861328125,-0.021719517186284065,-0.045138850808143616,-0.05317234247922897
1772454510923596300,8.44159619140625,-0.0291021429002285,-0.04193718731403351,-0.06628438830375671
1772454510933613600,8.451613525390625,-0.03826528042554855,-0.03434744477272034,-0.07328956574201584
1772454510943631400,8.46163134765625,-0.040935155004262924,-0.03579723834991455,-0.0686153769493103
1772454510953649400,8.4716494140625,-0.03232142701745033,-0.027257012203335762,-0.04075818136334419
1772454510963667500,8.48166748046875,-0.013589625246822834,-0.007429230026900768,-0.0019489685073494911
1772454510973684500,8.4916845703125,0.004569937475025654,0.021558212116360664,0.035181887447834015
1772454510983702500,8.50170263671875,0.019723139703273773,0.05001350864768028,0.07114043831825256
1772454510993720600,8.511720458984374,0.031047167256474495,0.0738607868552208,0.0934193804860115
1772454511003738400,8.52173828125,0.02836843580007553,0.08426283299922943,0.10114643722772598
1772454511013755400,8.53175537109375,0.02040904574096203,0.05875401198863983,0.08651156723499298
1772454511023773400,8.5417734375,0.010985423810780048,0.009427487850189209,0.05638658627867699
1772454511033791500,8.55179150390625,0.004102217499166727,-0.041210390627384186,0.018564373254776
1772454511043809500,8.5618095703125,-0.004065642133355141,-0.06650352478027344,-0.02874915301799774
1772454511053827600,8.57182763671875,-0.013551555573940277,-0.06701378524303436,-0.07139941304922104
1772454511063844400,8.58184423828125,-0.030444785952568054,-0.04962574318051338,-0.10790974646806717
1772454511073862400,8.5918623046875,-0.03756874054670334,-0.026283932849764824,-0.1210644319653511
1772454511083880400,8.60188037109375,-0.04837511107325554,-0.010744050145149231,-0.11341021955013275
1772454511093898500,8.6118984375,-0.044912733137607574,0.007653066888451576,-0.09192543476819992
1772454511103915500,8.62191552734375,-0.02592225931584835,0.014172974973917007,-0.0580475777387619
1772454511113933300,8.631933349609374,0.0017242809990420938,0.013873102143406868,-0.013464131392538548
1772454511123951400,8.641951416015624,0.03389756754040718,0.022919056937098503,0.037754300981760025
1772454511133969700,8.6519697265625,0.054933346807956696,0.025991812348365784,0.07582392543554306
1772454511143986400,8.661986328125,0.05686319246888161,0.017544256523251534,0.09830750524997711
1772454511154004200,8.672004150390626,0.04629497230052948,0.00834489706903696,0.09828673303127289
1772454511164022500,8.6820224609375,0.02295512519776821,-0.0012784283608198166,0.07235287874937057
1772454511174040300,8.692040283203125,-0.0015696599148213863,-0.005913926288485527,0.032953012734651566
1772454511184058400,8.702058349609375,-0.016081443056464195,-0.0006589742843061686,-0.014410633593797684
1772454511194075400,8.712075439453125,-0.016870005056262016,0.002674504416063428,-0.0550246387720108
1772454511204093400,8.722093505859375,-0.016546908766031265,0.0066971806809306145,-0.0775928720831871
1772454511214111200,8.732111328125,-0.012365478090941906,0.009669002145528793,-0.08418633043766022
1772454511224129500,8.742129638671875,-0.008255649358034134,0.004836997948586941,-0.06861739605665207
1772454511234146300,8.752146240234374,-0.0059048766270279884,-0.012088456191122532,-0.05124586448073387
1772454511244164400,8.762164306640624,-0.0009019635617733002,-0.03218942880630493,-0.021714933216571808
1772454511254182400,8.772182373046874,0.009114718064665794,-0.03388106822967529,0.006191531661897898
1772454511264200400,8.782200439453124,0.020792657509446144,-0.025569632649421692,0.022485502064228058
1772454511274217500,8.792217529296876,0.02479618787765503,-0.01700890250504017,0.03502233326435089
1772454511284235500,8.802235595703126,0.022934207692742348,-0.0024196021258831024,0.03384821116924286
1772454511294253300,8.81225341796875,0.01705794408917427,0.0008712660055607557,0.026310931891202927
1772454511304271400,8.822271240234375,0.013607189990580082,-0.004588219802826643,0.01739731803536415
1772454511314289400,8.832289306640625,0.008714164607226849,-0.0052558742463588715,0.008840048685669899
1772454511324306400,8.842306396484375,0.0032357280142605305,0.01129620149731636,0.006101379636675119
1772454511334324500,8.852324462890625,-0.0018391916528344154,0.015612919814884663,0.00783536396920681
1772454511344342500,8.862342529296875,-0.008992183022201061,0.0372101254761219,0.011586110107600689
1772454511354360300,8.8723603515625,-0.011928850784897804,0.04939382150769234,0.011597828008234501
1772454511364377600,8.882377685546874,-0.014323264360427856,0.042834144085645676,0.013713322579860687
1772454511374395400,8.8923955078125,-0.011889666318893433,0.029220061376690865,0.0054719047620892525
1772454511384413400,8.902413330078126,-0.0004878633189946413,0.01801060140132904,-0.0023498053196817636
1772454511394431200,8.91243115234375,0.006008385680615902,0.015292046591639519,-0.01183039229363203
1772454511404448500,8.922448486328125,-0.00011540309060364962,0.011583567596971989,-0.02012033946812153
1772454511414466300,8.93246630859375,-0.004413744900375605,0.005597846582531929,-0.02169560082256794
1772454511424484600,8.942484619140625,-0.005093581974506378,-0.0037207971327006817,-0.01749481074512005
1772454511434502400,8.95250244140625,-0.0073458170518279076,-0.015620066784322262,-0.015414881519973278
1772454511444520400,8.9625205078125,-0.0046917591243982315,-0.018929580226540565,-0.014978797174990177
1772454511454537500,8.972537353515625,0.002197572495788336,-0.016650181263685226,-0.008265500888228416
1772454511464555500,8.982555419921875,0.0050897253677248955,-0.008486296981573105,-0.006584070157259703
1772454511474573300,8.9925732421875,0.0063440739177167416,-0.0029264152981340885,0.0030946561601012945
1772454511484591400,9.00259130859375,0.00694405660033226,0.01498415507376194,0.022985177114605904
1772454511494608400,9.0126083984375,0.003259839490056038,0.021864697337150574,0.033698808401823044
1772454511504626400,9.02262646484375,0.0007812445983290672,0.021867068484425545,0.03658386319875717
1772454511514644500,9.03264453125,0.00030666927341371775,0.024572573602199554,0.03612499684095383
1772454511524662500,9.04266259765625,0.010298130102455616,0.021994704380631447,0.032601818442344666
1772454511534680300,9.052680419921876,0.01571553386747837,0.01714508794248104,0.030057700350880623
1772454511544697600,9.062697509765625,0.018424896523356438,0.009194972924888134,0.02404763735830784
1772454511554715400,9.07271533203125,0.009537926875054836,-0.0034467861987650394,0.016184387728571892
1772454511564733400,9.0827333984375,0.0026637762784957886,-0.01093053538352251,0.0014294107677415013
1772454511574751500,9.09275146484375,-0.009237358346581459,-0.0050199152901768684,-0.016763709485530853
1772454511584768500,9.1027685546875,-0.018981236964464188,-0.0004448655527085066,-0.03727509453892708
1772454511594786300,9.112786376953125,-0.025302249938249588,-0.004634816665202379,-0.051335785537958145
1772454511604804600,9.1228046875,-0.02512173354625702,-0.007388262078166008,-0.05363423004746437
1772454511614822400,9.132822509765624,-0.021905168890953064,-0.01732052117586136,-0.03979165107011795
1772454511624839400,9.14283935546875,-0.016078684478998184,-0.022839903831481934,-0.024190014228224754
1772454511634857500,9.152857421875,-0.007355500943958759,-0.020141322165727615,-0.008130885660648346
1772454511644875500,9.16287548828125,0.0011335918679833412,-0.02040843851864338,0.00452738581225276
1772454511654893300,9.172893310546876,0.007740361616015434,-0.01981082372367382,0.012946170754730701
1772454511664910300,9.182910400390625,0.011264980770647526,-0.014200327917933464,0.015882601961493492
1772454511674928400,9.192928466796875,0.006346388719975948,0.0010619813110679388,0.013750742189586163
1772454511684946400,9.202946533203125,-0.007500909268856049,0.03592327609658241,0.007847548462450504
1772454511694964500,9.212964599609375,-0.023405572399497032,0.046837709844112396,-0.00144129095133394
1772454511704982800,9.222982666015625,-0.033786479383707047,0.035288918763399124,-0.014208735898137093
1772454511714999800,9.232999755859375,-0.03447277471423149,0.046971675008535385,-0.022871999070048332
1772454511725017900,9.243017822265625,-0.03027733415365219,0.047895826399326324,-0.03332363814115524
1772454511735036000,9.253035888671874,-0.029690904542803764,0.03602585196495056,-0.048677824437618256
1772454511745053700,9.2630537109375,-0.037545427680015564,0.03640874847769737,-0.061844099313020706
1772454511755070700,9.27307080078125,-0.05506636202335358,0.02472892589867115,-0.06940454989671707
1772454511765088800,9.2830888671875,-0.09016847610473633,-0.013619265519082546,-0.07926797866821289
1772454511775106800,9.29310693359375,-0.13885052502155304,-0.018260356038808823,-0.10692064464092255
1772454511785124900,9.303124755859375,-0.18139521777629852,-0.054189857095479965,-0.12943337857723236
1772454511795143000,9.313142822265625,-0.20809580385684967,-0.09098648279905319,-0.15489959716796875
1772454511805159700,9.32315966796875,-0.20709984004497528,-0.08374002575874329,-0.18014277517795563
1772454511815178000,9.333177978515625,-0.19239838421344757,-0.059238679707050323,-0.1895139068365097
1772454511825195800,9.34319580078125,-0.17424777150154114,-0.0524558499455452,-0.1808987855911255
1772454511835213800,9.3532138671875,-0.14408640563488007,-0.05630571395158768,-0.13992364704608917
1772454511845230800,9.36323095703125,-0.10750142484903336,-0.03296281397342682,-0.06355573236942291
1772454511855248600,9.37324853515625,-0.05819512903690338,0.03999794274568558,0.027875913307070732
1772454511865266700,9.3832666015625,-0.028886454179883003,0.14631928503513336,0.11605948954820633
1772454511875285000,9.393284912109374,-0.004915873985737562,0.22667910158634186,0.17834337055683136
1772454511885301800,9.4033017578125,0.006355028133839369,0.2608480453491211,0.21940408647060394
1772454511895319800,9.41331982421875,0.013105075806379318,0.24820122122764587,0.21849489212036133
1772454511905337900,9.423337890625,0.021552806720137596,0.2062145471572876,0.18621480464935303
1772454511915356000,9.43335595703125,0.02891058847308159,0.15369248390197754,0.12986205518245697
1772454511925373000,9.443373046875,0.025479575619101524,0.11477312445640564,0.05884195864200592
1772454511935390700,9.453390625,0.012172292917966843,0.10014943778514862,-0.018561484292149544
1772454511945408800,9.46340869140625,-0.014192250557243824,0.10263389348983765,-0.09808068722486496
1772454511955426800,9.4734267578125,-0.04661810025572777,0.10565365105867386,-0.16807815432548523
1772454511965444900,9.48344482421875,-0.08861890435218811,0.1006426066160202,-0.21802251040935516
1772454511975461600,9.493461669921874,-0.13146677613258362,0.08033573627471924,-0.24305541813373566
1772454511985480000,9.50347998046875,-0.16972565650939941,0.031084304675459862,-0.23986147344112396
1772454511995497700,9.513497802734374,-0.18181374669075012,-0.014252283610403538,-0.21355529129505157
1772454512005515800,9.523515869140626,-0.17020156979560852,-0.061580102890729904,-0.1749691218137741
1772454512015532800,9.53353271484375,-0.14804568886756897,-0.10603997856378555,-0.1289752721786499
1772454512025550800,9.54355078125,-0.1137692779302597,-0.19612224400043488,-0.07209064811468124
1772454512035568600,9.553568603515625,-0.07156670093536377,-0.2385120391845703,-0.004725183825939894
1772454512045587000,9.5635869140625,-0.03145800158381462,-0.17354366183280945,0.05745077505707741
1772454512055603700,9.573603759765625,-0.009506365284323692,-0.03636450693011284,0.09941340237855911
1772454512065621800,9.583621826171875,-0.00587282283231616,0.11560985445976257,0.11377852410078049
1772454512075639800,9.593639892578125,-0.004952434450387955,0.24828587472438812,0.10180947929620743
1772454512085657900,9.603657958984375,0.01072058267891407,0.3071659803390503,0.07923640310764313
1772454512095675600,9.613675537109375,0.03899376466870308,0.2994561493396759,0.04676287993788719
1772454512105693000,9.62369287109375,0.0763055682182312,0.26170453429222107,0.019192034378647804
1772454512115710700,9.633710693359374,0.107889324426651,0.19566157460212708,-0.004676280543208122
1772454512125728800,9.643728759765626,0.12423678487539291,0.09308455884456635,-0.023624107241630554
1772454512135746800,9.653746826171876,0.11629443615674973,-0.008601585403084755,-0.02467978373169899
1772454512145763800,9.663763916015625,0.09116467833518982,-0.06527870893478394,-0.019085798412561417
1772454512155781600,9.67378173828125,0.05802430212497711,-0.08441618084907532,-0.011234000325202942
1772454512165800000,9.683800048828125,0.020314907655119896,-0.05330057442188263,-0.012564579956233501
1772454512175817700,9.693817626953125,-0.010551661252975464,0.012844891287386417,-0.022479260340332985
1772454512185835000,9.7038349609375,-0.03006674163043499,0.06240519881248474,-0.0397087037563324
1772454512195852800,9.713852783203125,-0.03922215476632118,0.08424098789691925,-0.06980322301387787
1772454512205870800,9.723870849609375,-0.04120998457074165,0.06087787449359894,-0.10831454396247864
1772454512215888600,9.733888671875,-0.03697635605931282,-0.0038310831878334284,-0.14378198981285095
1772454512225907000,9.743906982421874,-0.028666045516729355,-0.042103588581085205,-0.16915500164031982
1772454512235923700,9.753923828125,-0.02708332985639572,-0.05273439362645149,-0.18028967082500458
1772454512245941800,9.763941650390626,-0.02963353879749775,-0.0743958055973053,-0.17974837124347687
1772454512255959800,9.773959716796876,-0.018118295818567276,-0.07845552265644073,-0.16967496275901794
1772454512265977900,9.783977783203126,-0.0031311665661633015,-0.07230281084775925,-0.14061187207698822
1772454512275995000,9.793994873046875,0.013633166439831257,-0.06857678294181824,-0.1115647703409195
1772454512286013000,9.804012939453125,0.02108965441584587,-0.08726152777671814,-0.0795930027961731
1772454512296030700,9.81403076171875,0.027136893942952156,-0.11522817611694336,-0.05060156434774399
1772454512306048800,9.824048828125,0.019312329590320587,-0.09412926435470581,-0.018218141049146652
1772454512316065800,9.834065673828125,0.01078834943473339,-0.026588037610054016,0.010614839382469654
1772454512326083800,9.844083740234375,0.00518985278904438,0.05908292531967163,0.037960443645715714
1772454512336102000,9.854101806640625,0.003620185423642397,0.12223420292139053,0.06195472553372383
1772454512346120000,9.864119873046874,0.004180522169917822,0.14081557095050812,0.07448308169841766
1772454512356137700,9.8741376953125,0.004850040655583143,0.12111856788396835,0.07298745214939117
1772454512366155000,9.884155029296876,0.008354045450687408,0.07180143892765045,0.049856219440698624
1772454512376172800,9.8941728515625,0.009055254980921745,0.014274758286774158,0.012698731385171413
1772454512386190800,9.90419091796875,0.014027941040694714,-0.05852121114730835,-0.028926866129040718
1772454512396208600,9.914208740234375,0.024127181619405746,-0.10518165677785873,-0.058746013790369034
1772454512406226000,9.924225830078125,0.03346644341945648,-0.10866955667734146,-0.06527452170848846
1772454512416243700,9.93424365234375,0.027969148010015488,-0.06952454894781113,-0.055882617831230164
1772454512426262000,9.944261962890625,0.0005319157498888671,-0.016279494389891624,-0.044695738703012466
1772454512436279800,9.95427978515625,-0.03776247426867485,0.014120222069323063,-0.03284547105431557
1772454512446296600,9.964296630859375,-0.06620899587869644,0.01718715950846672,-0.022321633994579315
1772454512456315000,9.97431494140625,-0.0736706405878067,0.0007980659138411283,-0.015497550368309021
1772454512466333000,9.9843330078125,-0.05745718628168106,-0.044975560158491135,-0.01070055365562439
1772454512476350700,9.994350830078124,-0.023375917226076126,-0.09681186079978943,-0.007442975416779518
1772454512486368800,10.00436865234375,0.012750566937029362,-0.12124903500080109,-0.005675983149558306
1772454512496385800,10.0143857421875,0.033860113471746445,-0.08922025561332703,-0.0013691192725673318
1772454512506403800,10.02440380859375,0.04027066379785538,-0.020448414608836174,-0.0066973804496228695
1772454512516422000,10.034421875,0.03307054191827774,0.03149467706680298,-0.023041998967528343
1772454512526440000,10.04443994140625,0.015513835474848747,0.052715059369802475,-0.046041347086429596
1772454512536456700,10.054456787109375,-0.010656249709427357,0.047779954969882965,-0.0742010772228241
1772454512546474800,10.064474853515625,-0.04091004654765129,0.013987083919346333,-0.10834924131631851
1772454512556492800,10.074492919921875,-0.06854939460754395,-0.03777438402175903,-0.1344548761844635
1772454512566510800,10.0845107421875,-0.08750180155038834,-0.09094654023647308,-0.1431805044412613
1772454512576528000,10.09452783203125,-0.0967530906200409,-0.10361520200967789,-0.13064979016780853
1772454512586545700,10.104545654296874,-0.09845471382141113,-0.08672351390123367,-0.10307345539331436
1772454512596563700,10.114563720703124,-0.09382268041372299,-0.03797728568315506,-0.0700414627790451
1772454512606581800,10.124581787109374,-0.08033518493175507,0.017431333661079407,-0.045116908848285675
1772454512616599800,10.134599853515626,-0.051947757601737976,0.056657299399375916,-0.015028784051537514
1772454512626616800,10.144616943359376,-0.008021950721740723,0.0833534300327301,0.018988460302352905
1772454512636635000,10.154634765625,0.029469763860106468,0.09240204840898514,0.048824917525053024
1772454512646652700,10.164652587890625,0.055083490908145905,0.07873602211475372,0.07416298240423203
1772454512656670700,10.174670654296875,0.04830707982182503,0.04541508108377457,0.08893367648124695
1772454512666687700,10.184687744140625,0.02487540803849697,0.009638677351176739,0.08472742140293121
1772454512676705800,10.194705810546875,-0.008731023408472538,-0.020243056118488312,0.06066522374749184
1772454512686723600,10.2047236328125,-0.04091353341937065,-0.023522723466157913,0.020960718393325806
1772454512696741400,10.214741455078125,-0.052796825766563416,-0.021121883764863014,-0.024236854165792465
1772454512706758400,10.22475830078125,-0.05253889039158821,-0.013532130047678947,-0.05492803081870079
1772454512716776400,10.2347763671875,-0.04051578417420387,0.0005317574832588434,-0.06697510182857513
1772454512726794500,10.24479443359375,-0.022452358156442642,0.0002137760166078806,-0.059654075652360916
1772454512736812300,10.254812255859376,0.001449245261028409,-0.0027908021584153175,-0.03641213849186897
1772454512746829600,10.26482958984375,0.02130228653550148,-0.0008458751253783703,-0.004202629439532757
1772454512756847400,10.274847412109375,0.03767034038901329,-0.0014014104381203651,0.03522440791130066
1772454512766865400,10.284865478515625,0.04205651953816414,-0.01706213317811489,0.0698954239487648
1772454512776883500,10.294883544921875,0.022595735266804695,-0.025407681241631508,0.08015578240156174
1772454512786901500,10.304901611328125,-0.0013743339804932475,-0.04045456647872925,0.06882692128419876
1772454512796918300,10.314918212890625,-0.029089851304888725,-0.057956594973802567,0.036710258573293686
1772454512806936600,10.3249365234375,-0.053157150745391846,-0.06775729358196259,-0.001141920918598771
1772454512816954400,10.334954345703125,-0.06631023436784744,-0.063811294734478,-0.04171597585082054
1772454512826972400,10.344972412109374,-0.06327357888221741,-0.03472798317670822,-0.07327859103679657
1772454512836989400,10.354989501953124,-0.06051907315850258,-0.00836402177810669,-0.09369571506977081
1772454512847007500,10.365007568359376,-0.053283847868442535,-0.008194339461624622,-0.09470604360103607
1772454512857025300,10.375025390625,-0.04372469708323479,-0.01239387784153223,-0.0856022909283638
1772454512867043600,10.385043701171876,-0.0313134491443634,-0.018936477601528168,-0.05885578691959381
1772454512877061400,10.395061279296876,-0.014640727080404758,-0.023733630776405334,-0.0295500960201025
1772454512887078400,10.405078369140625,-0.004477251321077347,-0.03041074424982071,-0.00945875234901905
1772454512897096400,10.415096435546875,-0.0064642359502613544,-0.04397795349359512,-0.00482272170484066
1772454512907114500,10.425114501953125,-0.02192169986665249,-0.01923082210123539,-0.011722779832780361
1772454512917132300,10.43513232421875,-0.03935741260647774,0.020709937438368797,-0.026143264025449753
1772454512927149600,10.445149658203125,-0.05122234672307968,0.033395495265722275,-0.04009624198079109
1772454512937167400,10.45516748046875,-0.05600937828421593,0.018220802769064903,-0.05451033636927605
1772454512947185400,10.465185302734374,-0.04730207100510597,-0.007517136633396149,-0.05857713893055916
1772454512957203500,10.475203369140624,-0.03213829919695854,-0.03154390677809715,-0.051643867045640945
1772454512967220500,10.485220458984376,-0.01503501832485199,-0.045850660651922226,-0.04250307008624077
1772454512977238500,10.495238525390626,-0.010210435837507248,-0.04593135416507721,-0.03421264886856079
1772454512987256600,10.505256591796876,-0.004814284387975931,-0.043697796761989594,-0.02613748610019684
1772454512997274400,10.5152744140625,-0.005470487289130688,-0.03621777519583702,-0.014397474005818367
1772454513007291400,10.52529150390625,-0.0017969076288864017,-0.026464419439435005,-0.002263848204165697
1772454513017309400,10.535309326171875,-0.002726084552705288,-0.015973694622516632,0.006183166056871414
1772454513027327500,10.545327392578125,-0.007040986325591803,-0.0032989168539643288,0.004394978750497103
1772454513037345500,10.555345458984375,-0.012722574174404144,0.005571274086833,-0.0021627889946103096
1772454513047363600,10.565363525390625,-0.005969282239675522,0.003237017197534442,-0.018127232789993286
1772454513057380400,10.57538037109375,0.002034315839409828,-0.014742515981197357,-0.02615133672952652
1772454513067398700,10.585398681640624,0.0209983978420496,-0.029909774661064148,-0.03042522445321083
1772454513077416400,10.59541650390625,0.031331729143857956,-0.024188771843910217,-0.02662516012787819
1772454513087434500,10.6054345703125,0.03169523552060127,-0.023226093500852585,-0.02048337273299694
1772454513097451500,10.615451416015626,0.029488809406757355,-0.02752443589270115,-0.010331404395401478
1772454513107469300,10.62546923828125,0.02379206009209156,-0.0251371618360281,-0.006140077020972967
1772454513117487400,10.6354873046875,0.004642866551876068,-0.03358524292707443,-0.02133793756365776
1772454513127505700,10.645505615234375,-0.021455682814121246,-0.04243649169802666,-0.0757322683930397
1772454513137522400,10.6555224609375,-0.04300598055124283,-0.02867460809648037,-0.16741344332695007
1772454513147540200,10.665540283203125,-0.056736983358860016,-0.0012632757425308228,-0.285277783870697
1772454513157558500,10.67555859375,-0.06349582225084305,0.1517651528120041,-0.2582791745662689
1772454513167576300,10.685576416015625,-0.12299764901399612,0.20015773177146912,-0.11384470015764236
1772454513177594400,10.695594482421875,-0.17171192169189453,0.16408973932266235,0.020021487027406693
1772454513187611400,10.705611328125,-0.1673016995191574,0.07720943540334702,0.14216400682926178
1772454513197629400,10.71562939453125,-0.11046905070543289,0.035688888281583786,0.22781765460968018
1772454513207647200,10.725647216796874,-0.02364746294915676,0.027801983058452606,0.21061719954013824
1772454513217665500,10.73566552734375,0.07862671464681625,-0.008978402242064476,0.11660947650671005
1772454513227682300,10.745682373046876,0.16640248894691467,-0.048719167709350586,-0.019517090171575546
1772454513237700400,10.755700439453125,0.20816324651241302,-0.05026673153042793,-0.1678098738193512
1772454513247718400,10.765718505859375,0.19422785937786102,-0.034361276775598526,-0.2900632321834564
1772454513257736400,10.775736328125,0.11644810438156128,0.012503166683018208,-0.32541510462760925
1772454513267753500,10.78575341796875,0.003349389648064971,0.051239654421806335,-0.25334131717681885
