time,seconds_elapsed,z,y,x
1772454806189482800,0.064482666015625,-1.0050201416015625,-0.18487548828125,0.0233612060546875
1772454806199500500,0.07450048828125,-0.99383544921875,-0.18914794921875,0.0266876220703125
1772454806209518600,0.0845185546875,-0.9827117919921875,-0.196624755859375,0.0284576416015625
1772454806219536600,0.09453662109375,-0.9722747802734375,-0.2011871337890625,0.03350830078125
1772454806229554700,0.1045546875,-0.9638671875,-0.1999664306640625,0.0379638671875
1772454806239572500,0.114572509765625,-0.960968017578125,-0.1988525390625,0.0341644287109375
1772454806249589800,0.12458984375,-0.96551513671875,-0.200164794921875,0.0289764404296875
1772454806259607600,0.134607666015625,-0.9745941162109375,-0.2016448974609375,0.0302886962890625
1772454806269625600,0.14462548828125,-0.9757232666015625,-0.1987457275390625,0.0300750732421875
1772454806279643600,0.1546435546875,-0.9770660400390625,-0.19708251953125,0.0303955078125
1772454806289661700,0.16466162109375,-0.977813720703125,-0.1967926025390625,0.0312347412109375
1772454806299679500,0.174679443359375,-0.97589111328125,-0.196502685546875,0.029266357421875
1772454806309697500,0.184697509765625,-0.97357177734375,-0.1970672607421875,0.02874755859375
1772454806319714600,0.194714599609375,-0.97454833984375,-0.195709228515625,0.029510498046875
1772454806329732600,0.204732666015625,-0.9765625,-0.1940155029296875,0.0321807861328125
1772454806339750700,0.214750732421875,-0.9757232666015625,-0.193756103515625,0.0331878662109375
1772454806349768700,0.224768798828125,-0.9727783203125,-0.190826416015625,0.0308074951171875
1772454806359786500,0.234786376953125,-0.9710235595703125,-0.191070556640625,0.026031494140625
1772454806369804500,0.244804443359375,-0.972747802734375,-0.1930084228515625,0.0259857177734375
1772454806379821600,0.254821533203125,-0.9739837646484375,-0.193115234375,0.0312957763671875
1772454806389839600,0.264839599609375,-0.9766387939453125,-0.19219970703125,0.0275421142578125
1772454806399857400,0.274857421875,-0.9799041748046875,-0.192657470703125,0.0203094482421875
1772454806409875700,0.284875732421875,-0.98504638671875,-0.193115234375,0.017303466796875
1772454806419893500,0.2948935546875,-0.993255615234375,-0.1923370361328125,0.021392822265625
1772454806429911600,0.30491162109375,-0.9913482666015625,-0.190765380859375,0.0209808349609375
1772454806439929600,0.3149296875,-0.984283447265625,-0.1919403076171875,0.01983642578125
1772454806449947600,0.32494775390625,-0.97967529296875,-0.1942138671875,0.0218505859375
1772454806459964400,0.33496435546875,-0.9821014404296875,-0.199615478515625,0.026458740234375
1772454806469982700,0.344982666015625,-0.976470947265625,-0.19842529296875,0.029541015625
1772454806480000800,0.355000732421875,-0.972320556640625,-0.1949615478515625,0.029754638671875
1772454806490018600,0.3650185546875,-0.9680938720703125,-0.196533203125,0.025543212890625
1772454806500036600,0.37503662109375,-0.9665985107421875,-0.19793701171875,0.0237884521484375
1772454806510054700,0.3850546875,-0.9703826904296875,-0.198486328125,0.028350830078125
1772454806520071400,0.395071533203125,-0.9755706787109375,-0.1953277587890625,0.0316009521484375
1772454806530089700,0.40508984375,-0.978912353515625,-0.190338134765625,0.028900146484375
1772454806540107800,0.415107666015625,-0.9795684814453125,-0.1892547607421875,0.0282745361328125
1772454806550125600,0.42512548828125,-0.9814605712890625,-0.1879730224609375,0.0373382568359375
1772454806560143600,0.4351435546875,-0.98699951171875,-0.187225341796875,0.038116455078125
1772454806570161700,0.44516162109375,-0.9882354736328125,-0.18878173828125,0.0326080322265625
1772454806580179700,0.4551796875,-0.9852142333984375,-0.19097900390625,0.032928466796875
1772454806590196700,0.46519677734375,-0.9802398681640625,-0.1935882568359375,0.0332794189453125
1772454806600214800,0.47521484375,-0.976837158203125,-0.1947479248046875,0.02288818359375
1772454806610232600,0.485232666015625,-0.970184326171875,-0.197021484375,0.0164337158203125
1772454806620250600,0.495250732421875,-0.9666290283203125,-0.2044525146484375,0.026092529296875
1772454806630268700,0.5052685546875,-0.9677581787109375,-0.2024383544921875,0.0297698974609375
1772454806640286700,0.51528662109375,-0.965118408203125,-0.197662353515625,0.03021240234375
1772454806650304500,0.525304443359375,-0.971466064453125,-0.1966400146484375,0.0295562744140625
1772454806660321800,0.53532177734375,-0.9784393310546875,-0.1962738037109375,0.0278472900390625
1772454806670339600,0.545339599609375,-0.98480224609375,-0.1949615478515625,0.0295257568359375
1772454806680357600,0.555357666015625,-0.984222412109375,-0.1969146728515625,0.0275726318359375
1772454806690375700,0.565375732421875,-0.9780120849609375,-0.19732666015625,0.0258941650390625
1772454806700393700,0.575393798828125,-0.970611572265625,-0.199249267578125,0.0239715576171875
1772454806710411500,0.58541162109375,-0.9679718017578125,-0.2011260986328125,0.0263519287109375
1772454806720429600,0.5954296875,-0.967559814453125,-0.199676513671875,0.031097412109375
1772454806730446600,0.605446533203125,-0.9637908935546875,-0.197723388671875,0.03240966796875
1772454806740464600,0.615464599609375,-0.9604034423828125,-0.199005126953125,0.030059814453125
1772454806750482400,0.625482421875,-0.96075439453125,-0.2028656005859375,0.0256500244140625
1772454806760500700,0.635500732421875,-0.963134765625,-0.2001495361328125,0.0214691162109375
1772454806770518500,0.6455185546875,-0.966766357421875,-0.1992034912109375,0.0189208984375
1772454806780536600,0.65553662109375,-0.9727630615234375,-0.201416015625,0.0219573974609375
1772454806790554600,0.6655546875,-0.9818267822265625,-0.20233154296875,0.0312042236328125
1772454806800571600,0.675571533203125,-0.984344482421875,-0.201324462890625,0.0333251953125
1772454806810589400,0.68558935546875,-0.9798583984375,-0.2020721435546875,0.0260467529296875
1772454806820607700,0.695607666015625,-0.9741668701171875,-0.2028350830078125,0.022491455078125
1772454806830625500,0.70562548828125,-0.9677734375,-0.200439453125,0.0246429443359375
1772454806840643600,0.7156435546875,-0.9659576416015625,-0.193756103515625,0.0182342529296875
1772454806850661600,0.72566162109375,-0.966888427734375,-0.195892333984375,0.0238037109375
1772454806860679700,0.7356796875,-0.9644927978515625,-0.198944091796875,0.0243377685546875
1772454806870696400,0.745696533203125,-0.9575347900390625,-0.20159912109375,0.023345947265625
1772454806880714800,0.75571484375,-0.9548492431640625,-0.2003631591796875,0.02191162109375
1772454806890732500,0.765732666015625,-0.960235595703125,-0.1952362060546875,0.0196533203125
1772454806900750600,0.77575048828125,-0.9706878662109375,-0.193756103515625,0.0179290771484375
1772454806910768400,0.785768310546875,-0.9799652099609375,-0.1937255859375,0.021209716796875
1772454806920786700,0.79578662109375,-0.9845123291015625,-0.189605712890625,0.0323028564453125
1772454806930804700,0.8058046875,-0.9795684814453125,-0.1803131103515625,0.0457611083984375
1772454806940821800,0.81582177734375,-0.979705810546875,-0.1724090576171875,0.0635528564453125
1772454806950839600,0.825839599609375,-0.976837158203125,-0.168792724609375,0.0687103271484375
1772454806960857600,0.835857666015625,-0.9741973876953125,-0.201934814453125,0.0310516357421875
1772454806970875400,0.84587548828125,-0.9794158935546875,-0.2128143310546875,0.003814697265625
1772454806980893700,0.855893798828125,-0.99407958984375,-0.2063446044921875,0.0110626220703125
1772454806990911700,0.865911865234375,-1.0093536376953125,-0.204254150390625,0.0300445556640625
1772454807000929800,0.8759296875,-1.0165557861328125,-0.203399658203125,0.042572021484375
1772454807010946800,0.88594677734375,-1.0219879150390625,-0.1973876953125,0.0501251220703125
1772454807020964900,0.89596484375,-1.021820068359375,-0.194580078125,0.053466796875
1772454807030982700,0.905982666015625,-1.0094146728515625,-0.1896514892578125,0.0589599609375
1772454807041001000,0.9160009765625,-0.9916229248046875,-0.1918182373046875,0.0640869140625
1772454807051018800,0.926018798828125,-0.9752044677734375,-0.1974945068359375,0.0593109130859375
1772454807061036800,0.936036865234375,-0.966156005859375,-0.2066497802734375,0.0418853759765625
1772454807071054600,0.9460546875,-0.9580535888671875,-0.2105865478515625,0.030609130859375
1772454807081071900,0.95607177734375,-0.9493560791015625,-0.2125091552734375,0.030853271484375
1772454807091089700,0.966089599609375,-0.9477691650390625,-0.2057952880859375,0.0302734375
1772454807101107700,0.976107666015625,-0.946990966796875,-0.200714111328125,0.040557861328125
1772454807111125800,0.986125732421875,-0.9551544189453125,-0.20306396484375,0.0469970703125
1772454807121143800,0.996143798828125,-0.9698486328125,-0.2088165283203125,0.039764404296875
1772454807131161600,1.00616162109375,-0.9822845458984375,-0.2144012451171875,0.0335845947265625
1772454807141179000,1.016178955078125,-0.989227294921875,-0.216552734375,0.027984619140625
1772454807151196700,1.02619677734375,-0.9896240234375,-0.2180023193359375,0.028564453125
1772454807161214700,1.036214599609375,-0.982696533203125,-0.21795654296875,0.0339508056640625
1772454807171232800,1.046232666015625,-0.971649169921875,-0.2173919677734375,0.0388641357421875
1772454807181250800,1.056250732421875,-0.9629974365234375,-0.2193145751953125,0.0387420654296875
1772454807191268600,1.0662685546875,-0.95611572265625,-0.2212677001953125,0.0322113037109375
1772454807201287000,1.076286865234375,-0.9530029296875,-0.2235260009765625,0.0290985107421875
1772454807211303700,1.0863037109375,-0.9590301513671875,-0.22442626953125,0.0256805419921875
1772454807221321700,1.09632177734375,-0.9640655517578125,-0.224639892578125,0.018310546875
1772454807231339800,1.10633984375,-0.960723876953125,-0.2271575927734375,0.0137786865234375
1772454807241357800,1.11635791015625,-0.95458984375,-0.226806640625,0.0134735107421875
1772454807251375600,1.126375732421875,-0.9474029541015625,-0.2248992919921875,0.01593017578125
1772454807261393700,1.1363935546875,-0.941131591796875,-0.2228546142578125,0.02142333984375
1772454807271411700,1.14641162109375,-0.941925048828125,-0.2206878662109375,0.0272979736328125
1772454807281428700,1.1564287109375,-0.9459228515625,-0.2206573486328125,0.0262451171875
1772454807291446800,1.16644677734375,-0.9598541259765625,-0.2171783447265625,0.0250244140625
1772454807301464800,1.17646484375,-0.9762725830078125,-0.2162628173828125,0.0269317626953125
1772454807311482600,1.186482666015625,-0.9920654296875,-0.217071533203125,0.0236358642578125
1772454807321500700,1.196500732421875,-1.002655029296875,-0.21844482421875,0.0228118896484375
1772454807331518700,1.206518798828125,-1.00439453125,-0.2150726318359375,0.0244140625
1772454807341536800,1.216536865234375,-0.996826171875,-0.21527099609375,0.027587890625
1772454807351553800,1.2265537109375,-0.9831390380859375,-0.217315673828125,0.0281219482421875
1772454807361571800,1.23657177734375,-0.9730224609375,-0.2199249267578125,0.0288238525390625
1772454807371589600,1.246589599609375,-0.9734039306640625,-0.2200775146484375,0.0282440185546875
1772454807381607700,1.256607666015625,-0.978302001953125,-0.22027587890625,0.0237884521484375
1772454807391625700,1.266625732421875,-0.9849395751953125,-0.21875,0.0213775634765625
1772454807401643800,1.276643798828125,-0.986175537109375,-0.2176971435546875,0.0235137939453125
1772454807411661800,1.286661865234375,-0.9818115234375,-0.212493896484375,0.027679443359375
1772454807421678800,1.296678955078125,-0.9727783203125,-0.215362548828125,0.026092529296875
1772454807431696600,1.306696533203125,-0.963134765625,-0.2186737060546875,0.021820068359375
1772454807441714700,1.316714599609375,-0.9569091796875,-0.216796875,0.0175018310546875
1772454807451732700,1.326732666015625,-0.960205078125,-0.217041015625,0.013763427734375
1772454807461750800,1.336750732421875,-0.9688873291015625,-0.21722412109375,0.0120391845703125
1772454807471768800,1.346768798828125,-0.9713897705078125,-0.219482421875,0.013702392578125
1772454807481785900,1.356785888671875,-0.9730682373046875,-0.2192840576171875,0.014495849609375
1772454807491803600,1.3668037109375,-0.9712066650390625,-0.2183685302734375,0.0119781494140625
1772454807501821700,1.37682177734375,-0.969329833984375,-0.217559814453125,0.013519287109375
1772454807511839700,1.38683984375,-0.9711761474609375,-0.21612548828125,0.0132904052734375
1772454807521857800,1.39685791015625,-0.9734649658203125,-0.2159881591796875,0.0128936767578125
1772454807531875800,1.406875732421875,-0.975555419921875,-0.2139434814453125,0.0137481689453125
1772454807541893600,1.4168935546875,-0.97943115234375,-0.2102203369140625,0.016265869140625
1772454807551910700,1.42691064453125,-0.982025146484375,-0.212615966796875,0.01641845703125
1772454807561928700,1.4369287109375,-0.981109619140625,-0.2144622802734375,0.0139312744140625
1772454807571946800,1.44694677734375,-0.9752960205078125,-0.21466064453125,0.014984130859375
1772454807581964800,1.45696484375,-0.9698638916015625,-0.2144775390625,0.0191802978515625
1772454807591982800,1.46698291015625,-0.967498779296875,-0.21270751953125,0.019134521484375
1772454807602000600,1.477000732421875,-0.966064453125,-0.21197509765625,0.0176849365234375
1772454807612019000,1.48701904296875,-0.96697998046875,-0.212799072265625,0.024200439453125
1772454807622035700,1.49703564453125,-0.966064453125,-0.2105255126953125,0.0269927978515625
1772454807632053800,1.5070537109375,-0.9645843505859375,-0.21209716796875,0.0248260498046875
1772454807642071800,1.51707177734375,-0.9678955078125,-0.2130126953125,0.02301025390625
1772454807652089900,1.52708984375,-0.975738525390625,-0.2127685546875,0.0233001708984375
1772454807662107600,1.537107666015625,-0.9819793701171875,-0.21173095703125,0.019744873046875
1772454807672125700,1.547125732421875,-0.9844512939453125,-0.2125244140625,0.0189056396484375
1772454807682142700,1.557142822265625,-0.98486328125,-0.2113189697265625,0.0229034423828125
1772454807692160800,1.567160888671875,-0.980438232421875,-0.2101287841796875,0.0242767333984375
1772454807702178800,1.5771787109375,-0.9745941162109375,-0.2107086181640625,0.02288818359375
1772454807712196900,1.58719677734375,-0.9727783203125,-0.21624755859375,0.021575927734375
1772454807722214700,1.597214599609375,-0.977264404296875,-0.216583251953125,0.0189971923828125
1772454807732232700,1.607232666015625,-0.9859771728515625,-0.2141876220703125,0.015960693359375
1772454807742250800,1.617250732421875,-0.9860687255859375,-0.21478271484375,0.020538330078125
1772454807752267800,1.627267822265625,-0.9834136962890625,-0.214111328125,0.023834228515625
1772454807762285800,1.637285888671875,-0.976715087890625,-0.213714599609375,0.0227508544921875
1772454807772304000,1.647303955078125,-0.9725494384765625,-0.2134857177734375,0.022186279296875
1772454807782321700,1.65732177734375,-0.9668426513671875,-0.2117462158203125,0.0223541259765625
1772454807792339700,1.667339599609375,-0.96246337890625,-0.2117919921875,0.0197296142578125
1772454807802357800,1.677357666015625,-0.9621429443359375,-0.2145233154296875,0.0127105712890625
1772454807812375800,1.687375732421875,-0.963409423828125,-0.214080810546875,0.011260986328125
1772454807822392600,1.697392578125,-0.965576171875,-0.2137298583984375,0.0142669677734375
1772454807832411000,1.707410888671875,-0.9679412841796875,-0.2130889892578125,0.0191192626953125
1772454807842428700,1.7174287109375,-0.973358154296875,-0.2115020751953125,0.019775390625
1772454807852446700,1.72744677734375,-0.974456787109375,-0.210205078125,0.02227783203125
1772454807862464800,1.73746484375,-0.9740142822265625,-0.21063232421875,0.02337646484375
1772454807872482800,1.74748291015625,-0.9749755859375,-0.21038818359375,0.024810791015625
1772454807882499600,1.75749951171875,-0.9764862060546875,-0.2125701904296875,0.017333984375
1772454807892518000,1.767517822265625,-0.9741668701171875,-0.2160186767578125,0.0166015625
1772454807902535700,1.77753564453125,-0.9712371826171875,-0.215606689453125,0.0229034423828125
1772454807912553700,1.7875537109375,-0.9706573486328125,-0.2195587158203125,0.021209716796875
1772454807922571800,1.79757177734375,-0.9716339111328125,-0.2222747802734375,0.01605224609375
1772454807932589800,1.80758984375,-0.97076416015625,-0.2199859619140625,0.0152587890625
1772454807942607600,1.817607666015625,-0.9702606201171875,-0.21673583984375,0.022308349609375
1772454807952625000,1.827625,-0.9732666015625,-0.218536376953125,0.02423095703125
1772454807962642700,1.837642578125,-0.977386474609375,-0.221282958984375,0.018341064453125
1772454807972660700,1.84766064453125,-0.981719970703125,-0.222442626953125,0.0154571533203125
1772454807982678500,1.857678466796875,-0.98583984375,-0.2220611572265625,0.015106201171875
1772454807992696600,1.867696533203125,-0.98553466796875,-0.22222900390625,0.013824462890625
1772454808002714600,1.877714599609375,-0.9769439697265625,-0.2248992919921875,0.014312744140625
1772454808012732400,1.887732421875,-0.9683074951171875,-0.22149658203125,0.018646240234375
1772454808022749400,1.89774951171875,-0.958831787109375,-0.2213897705078125,0.0232696533203125
1772454808032767500,1.907767578125,-0.954193115234375,-0.2228240966796875,0.020172119140625
1772454808042785500,1.91778564453125,-0.9573211669921875,-0.22265625,0.01727294921875
1772454808052803600,1.927803466796875,-0.9602813720703125,-0.222900390625,0.0184783935546875
1772454808062821600,1.937821533203125,-0.960357666015625,-0.22119140625,0.02264404296875
1772454808072839400,1.94783935546875,-0.9639129638671875,-0.219970703125,0.0228424072265625
1772454808082856700,1.957856689453125,-0.9650726318359375,-0.217559814453125,0.0209197998046875
1772454808092874500,1.96787451171875,-0.970428466796875,-0.219329833984375,0.0175628662109375
1772454808102892500,1.977892578125,-0.97882080078125,-0.2204437255859375,0.016693115234375
1772454808112910600,1.98791064453125,-0.9847869873046875,-0.2227630615234375,0.0190887451171875
1772454808122928600,1.9979287109375,-0.984588623046875,-0.22210693359375,0.0208587646484375
1772454808132946400,2.007946533203125,-0.9804534912109375,-0.221527099609375,0.02447509765625
1772454808142964500,2.017964599609375,-0.9778594970703125,-0.2234649658203125,0.0301361083984375
1772454808152981500,2.0279814453125,-0.9761962890625,-0.2254486083984375,0.0257720947265625
1772454808162999600,2.03799951171875,-0.977508544921875,-0.228729248046875,0.022552490234375
1772454808173017600,2.048017578125,-0.972900390625,-0.2282257080078125,0.023345947265625
1772454808183035600,2.05803564453125,-0.97314453125,-0.23016357421875,0.025390625
1772454808193053400,2.068053466796875,-0.9706878662109375,-0.2317047119140625,0.024505615234375
1772454808203071500,2.078071533203125,-0.9655914306640625,-0.232940673828125,0.01800537109375
1772454808213088500,2.088088623046875,-0.9647674560546875,-0.232025146484375,0.0177764892578125
1772454808223106600,2.0981064453125,-0.964935302734375,-0.23529052734375,0.015045166015625
1772454808233124600,2.10812451171875,-0.9611053466796875,-0.2371063232421875,0.0131378173828125
1772454808243142700,2.118142578125,-0.965057373046875,-0.2352447509765625,0.0155792236328125
1772454808253160400,2.128160400390625,-0.9667816162109375,-0.2358856201171875,0.0173492431640625
1772454808263178500,2.138178466796875,-0.968048095703125,-0.2385101318359375,0.0175323486328125
1772454808273196500,2.148196533203125,-0.968231201171875,-0.2363433837890625,0.0199127197265625
1772454808283213600,2.158213623046875,-0.9703826904296875,-0.2335052490234375,0.025177001953125
1772454808293231400,2.1682314453125,-0.9736785888671875,-0.2359619140625,0.02362060546875
1772454808303249700,2.178249755859375,-0.9745330810546875,-0.2371978759765625,0.0201568603515625
1772454808313267500,2.188267333984375,-0.9739227294921875,-0.2361907958984375,0.018463134765625
1772454808323285500,2.198285400390625,-0.97161865234375,-0.23486328125,0.014739990234375
1772454808333303600,2.208303466796875,-0.96978759765625,-0.2347412109375,0.0185699462890625
1772454808343320600,2.218320556640625,-0.9726715087890625,-0.2359466552734375,0.0193023681640625
1772454808353338400,2.22833837890625,-0.972686767578125,-0.2359161376953125,0.0160369873046875
1772454808363356700,2.238356689453125,-0.9708099365234375,-0.2340850830078125,0.0214691162109375
1772454808373374500,2.24837451171875,-0.96820068359375,-0.2338104248046875,0.0234222412109375
1772454808383392500,2.258392578125,-0.9641265869140625,-0.2363128662109375,0.022125244140625
1772454808393410600,2.26841064453125,-0.96063232421875,-0.2389678955078125,0.015625
1772454808403428600,2.2784287109375,-0.955963134765625,-0.239471435546875,0.012786865234375
1772454808413445400,2.2884453125,-0.9499969482421875,-0.241363525390625,0.0106353759765625
1772454808423463700,2.298463623046875,-0.9489593505859375,-0.2436370849609375,0.0135345458984375
1772454808433481500,2.3084814453125,-0.9535064697265625,-0.245391845703125,0.01153564453125
1772454808443499500,2.31849951171875,-0.9545440673828125,-0.24200439453125,0.0058746337890625
1772454808453517300,2.328517333984375,-0.9592742919921875,-0.2430877685546875,0.0121307373046875
1772454808463535600,2.33853564453125,-0.962493896484375,-0.2447509765625,0.0159149169921875
1772454808473553400,2.348553466796875,-0.9640350341796875,-0.242584228515625,0.0137481689453125
1772454808483570700,2.35857080078125,-0.9675445556640625,-0.245086669921875,0.0138397216796875
1772454808493588500,2.36858837890625,-0.9701080322265625,-0.243896484375,0.0189056396484375
1772454808503606500,2.3786064453125,-0.9761199951171875,-0.24273681640625,0.0195770263671875
1772454808513624300,2.388624267578125,-0.979888916015625,-0.24578857421875,0.0128326416015625
1772454808523642600,2.398642578125,-0.978912353515625,-0.2462615966796875,0.0100860595703125
1772454808533660700,2.40866064453125,-0.97955322265625,-0.242156982421875,0.013092041015625
1772454808543677700,2.418677734375,-0.977447509765625,-0.242340087890625,0.01611328125
1772454808553695500,2.428695556640625,-0.9726104736328125,-0.2451019287109375,0.0138397216796875
1772454808563713500,2.438713623046875,-0.9679718017578125,-0.24761962890625,0.013092041015625
1772454808573731300,2.4487314453125,-0.96148681640625,-0.2508087158203125,0.012725830078125
1772454808583749600,2.45874951171875,-0.957000732421875,-0.2509918212890625,0.0115509033203125
1772454808593767700,2.468767578125,-0.9577789306640625,-0.2526397705078125,0.011810302734375
1772454808603785500,2.478785400390625,-0.9449005126953125,-0.249114990234375,0.0221710205078125
1772454808613802500,2.488802490234375,-0.9176483154296875,-0.2447052001953125,0.01708984375
1772454808623820500,2.498820556640625,-0.945587158203125,-0.247039794921875,0.00592041015625
1772454808633838600,2.508838623046875,-0.9612274169921875,-0.24676513671875,0.003509521484375
1772454808643856600,2.518856689453125,-0.9661865234375,-0.254730224609375,0.0086212158203125
1772454808653874700,2.528874755859375,-0.969390869140625,-0.2489166259765625,0.01080322265625
1772454808663892500,2.538892578125,-0.969085693359375,-0.241180419921875,0.0111083984375
1772454808673909500,2.548909423828125,-0.9680023193359375,-0.2428131103515625,0.0188140869140625
1772454808683927600,2.558927490234375,-0.9659881591796875,-0.2461395263671875,0.0201568603515625
1772454808693945600,2.568945556640625,-0.9624481201171875,-0.247467041015625,0.0186004638671875
1772454808703963400,2.57896337890625,-0.959320068359375,-0.2492218017578125,0.013427734375
1772454808713981700,2.588981689453125,-0.9579925537109375,-0.2500152587890625,0.012176513671875
1772454808723999500,2.59899951171875,-0.955352783203125,-0.2500457763671875,0.01300048828125
1772454808734017500,2.609017578125,-0.9535369873046875,-0.253662109375,0.0129241943359375
1772454808744034600,2.61903466796875,-0.952606201171875,-0.2545318603515625,0.0132293701171875
1772454808754052600,2.629052490234375,-0.9528045654296875,-0.25341796875,0.01190185546875
1772454808764070400,2.6390703125,-0.9599456787109375,-0.251495361328125,0.010711669921875
1772454808774088700,2.649088623046875,-0.966522216796875,-0.2524261474609375,0.0049896240234375
1772454808784106500,2.6591064453125,-0.9702911376953125,-0.2490997314453125,0.0068206787109375
1772454808794124500,2.66912451171875,-0.97198486328125,-0.24591064453125,0.0119476318359375
1772454808804141600,2.6791416015625,-0.9718780517578125,-0.248870849609375,0.0145721435546875
1772454808814159600,2.68915966796875,-0.970062255859375,-0.2503814697265625,0.0160980224609375
1772454808824177400,2.699177490234375,-0.9659271240234375,-0.2500152587890625,0.018280029296875
1772454808834195700,2.70919580078125,-0.9620361328125,-0.248443603515625,0.0196075439453125
1772454808844213500,2.719213623046875,-0.9631195068359375,-0.2485809326171875,0.01983642578125
1772454808854231600,2.7292314453125,-0.96722412109375,-0.247406005859375,0.02264404296875
1772454808864249300,2.739249267578125,-0.970062255859375,-0.244781494140625,0.018646240234375
1772454808874266600,2.7492666015625,-0.974029541015625,-0.244537353515625,0.0148773193359375
1772454808884284400,2.759284423828125,-0.977752685546875,-0.2440338134765625,0.01434326171875
1772454808894302700,2.769302734375,-0.97454833984375,-0.245880126953125,0.0134124755859375
1772454808904320500,2.779320556640625,-0.9702606201171875,-0.245147705078125,0.016632080078125
1772454808914338600,2.789338623046875,-0.96551513671875,-0.2461395263671875,0.0174407958984375
1772454808924356400,2.7993564453125,-0.96490478515625,-0.2489013671875,0.017608642578125
1772454808934373600,2.80937353515625,-0.962249755859375,-0.246917724609375,0.0211181640625
1772454808944391400,2.819391357421875,-0.9630126953125,-0.2473602294921875,0.0205535888671875
1772454808954409500,2.829409423828125,-0.961181640625,-0.249481201171875,0.0157470703125
1772454808964427500,2.839427490234375,-0.9569549560546875,-0.2477264404296875,0.0157928466796875
1772454808974445600,2.849445556640625,-0.957183837890625,-0.2483367919921875,0.0190582275390625
1772454808984463400,2.85946337890625,-0.9583892822265625,-0.24822998046875,0.015594482421875
1772454808994482000,2.86948193359375,-0.9628448486328125,-0.2482147216796875,0.01641845703125
1772454809004499000,2.8794990234375,-0.9665069580078125,-0.2458038330078125,0.016021728515625
1772454809014517000,2.88951708984375,-0.9709320068359375,-0.2434234619140625,0.0193023681640625
1772454809024535000,2.89953515625,-0.971160888671875,-0.2447662353515625,0.0224456787109375
1772454809034553000,2.909552978515625,-0.965118408203125,-0.24560546875,0.0195465087890625
1772454809044571000,2.91957080078125,-0.95916748046875,-0.244842529296875,0.0187225341796875
1772454809054589000,2.9295888671875,-0.9559326171875,-0.24493408203125,0.0200347900390625
1772454809064606000,2.93960595703125,-0.955322265625,-0.244903564453125,0.0195159912109375
1772454809074624000,2.9496240234375,-0.9613800048828125,-0.244537353515625,0.0163726806640625
1772454809084642000,2.95964208984375,-0.9680633544921875,-0.2452392578125,0.0087432861328125
1772454809094660000,2.96966015625,-0.9713897705078125,-0.2447052001953125,0.012542724609375
1772454809104678100,2.97967822265625,-0.9732818603515625,-0.2447662353515625,0.0151519775390625
1772454809114696000,2.989696044921875,-0.970611572265625,-0.2437896728515625,0.0124969482421875
1772454809124714200,2.99971435546875,-0.967132568359375,-0.2459869384765625,0.0113983154296875
1772454809134731000,3.00973095703125,-0.9650726318359375,-0.2462921142578125,0.018218994140625
1772454809144748800,3.019748779296875,-0.9661865234375,-0.2465057373046875,0.0199737548828125
1772454809154767000,3.02976708984375,-0.9700469970703125,-0.2459869384765625,0.0175018310546875
1772454809164785200,3.03978515625,-0.972076416015625,-0.2450714111328125,0.01556396484375
1772454809174803000,3.049802978515625,-0.97198486328125,-0.243804931640625,0.0169677734375
1772454809184821200,3.0598212890625,-0.971160888671875,-0.24371337890625,0.0177764892578125
1772454809194838000,3.069838134765625,-0.9669342041015625,-0.24346923828125,0.018707275390625
1772454809204855800,3.079855712890625,-0.965057373046875,-0.2423095703125,0.019500732421875
1772454809214874000,3.0898740234375,-0.96258544921875,-0.2429962158203125,0.0181732177734375
1772454809224892200,3.09989208984375,-0.958831787109375,-0.2447509765625,0.01800537109375
1772454809234910000,3.109909912109375,-0.9550933837890625,-0.2433013916015625,0.0189208984375
1772454809244928000,3.119927978515625,-0.956298828125,-0.2407684326171875,0.0218963623046875
1772454809254946000,3.129946044921875,-0.9673919677734375,-0.2402496337890625,0.0211334228515625
1772454809264963000,3.139963134765625,-0.974700927734375,-0.2401275634765625,0.021453857421875
1772454809274981000,3.149981201171875,-0.9738311767578125,-0.241058349609375,0.0167694091796875
1772454809284999200,3.159999267578125,-0.960784912109375,-0.23907470703125,0.0139312744140625
1772454809295017000,3.170016845703125,-0.95196533203125,-0.2390899658203125,0.016815185546875
1772454809305035000,3.180034912109375,-0.9434051513671875,-0.2487640380859375,0.0113677978515625
1772454809315053000,3.190052978515625,-0.94415283203125,-0.2365570068359375,0.02056884765625
1772454809325070000,3.200070068359375,-0.9496307373046875,-0.2345123291015625,0.021331787109375
1772454809335088000,3.210088134765625,-0.9567108154296875,-0.2444000244140625,0.010345458984375
1772454809345106200,3.220106201171875,-0.966552734375,-0.2447662353515625,0.0091552734375
1772454809355124000,3.2301240234375,-0.9749603271484375,-0.239044189453125,0.013336181640625
1772454809365142000,3.24014208984375,-0.98046875,-0.2369842529296875,0.01416015625
1772454809375160000,3.25016015625,-0.9866790771484375,-0.233978271484375,0.0237274169921875
1772454809385178000,3.26017822265625,-0.98541259765625,-0.23260498046875,0.02996826171875
1772454809395195000,3.27019482421875,-0.9815826416015625,-0.22808837890625,0.0316009521484375
1772454809405213200,3.280213134765625,-0.979217529296875,-0.2260284423828125,0.03082275390625
1772454809415231000,3.29023095703125,-0.9749603271484375,-0.229095458984375,0.030059814453125
1772454809425249000,3.3002490234375,-0.968963623046875,-0.2298126220703125,0.0305328369140625
1772454809435267000,3.31026708984375,-0.9657440185546875,-0.231475830078125,0.0272979736328125
1772454809445285000,3.32028515625,-0.962890625,-0.2329864501953125,0.0244598388671875
1772454809455302000,3.330302001953125,-0.962188720703125,-0.234832763671875,0.025970458984375
1772454809465320200,3.3403203125,-0.9602813720703125,-0.235015869140625,0.0279998779296875
1772454809475338000,3.350337890625,-0.958343505859375,-0.2340087890625,0.0291595458984375
1772454809485356000,3.36035595703125,-0.96160888671875,-0.232879638671875,0.0278167724609375
1772454809495374000,3.3703740234375,-0.9642486572265625,-0.2312774658203125,0.028350830078125
1772454809505392000,3.38039208984375,-0.9658050537109375,-0.234039306640625,0.02935791015625
1772454809515410000,3.390409912109375,-0.9703369140625,-0.2321014404296875,0.024932861328125
1772454809525427200,3.40042724609375,-0.9776153564453125,-0.2318572998046875,0.02569580078125
1772454809535445000,3.410445068359375,-0.9808502197265625,-0.2297210693359375,0.0240936279296875
1772454809545463000,3.420463134765625,-0.9774322509765625,-0.22930908203125,0.0215606689453125
1772454809555480800,3.430480712890625,-0.97454833984375,-0.22784423828125,0.0240631103515625
1772454809565499100,3.4404990234375,-0.9705810546875,-0.2295074462890625,0.0273590087890625
1772454809575517000,3.450516845703125,-0.963287353515625,-0.2287139892578125,0.026123046875
1772454809585534200,3.4605341796875,-0.9568023681640625,-0.230010986328125,0.0201568603515625
1772454809595552000,3.470552001953125,-0.9599456787109375,-0.2322235107421875,0.0237579345703125
1772454809605570000,3.480570068359375,-0.9561004638671875,-0.2335205078125,0.023895263671875
1772454809615587800,3.490587890625,-0.9527740478515625,-0.2324981689453125,0.0259552001953125
1772454809625606100,3.500606201171875,-0.95025634765625,-0.232452392578125,0.026519775390625
1772454809635624000,3.5106240234375,-0.9486236572265625,-0.2308197021484375,0.028533935546875
1772454809645641200,3.52064111328125,-0.952911376953125,-0.2293853759765625,0.0291900634765625
1772454809655659000,3.530658935546875,-0.9592437744140625,-0.229400634765625,0.0282440185546875
1772454809665677000,3.540677001953125,-0.9685516357421875,-0.2311248779296875,0.0234222412109375
1772454809675694800,3.55069482421875,-0.9760284423828125,-0.2315826416015625,0.018218994140625
1772454809685713200,3.560713134765625,-0.9781036376953125,-0.232391357421875,0.014129638671875
1772454809695731000,3.57073095703125,-0.973907470703125,-0.2301483154296875,0.0142974853515625
1772454809705749000,3.5807490234375,-0.9765472412109375,-0.229766845703125,0.0154571533203125
1772454809715766000,3.59076611328125,-0.979827880859375,-0.2306671142578125,0.0188446044921875
1772454809725784000,3.6007841796875,-0.977325439453125,-0.229461669921875,0.02154541015625
1772454809735801900,3.6108017578125,-0.9783935546875,-0.2251739501953125,0.024505615234375
1772454809745820200,3.620820068359375,-0.977996826171875,-0.223785400390625,0.0243682861328125
1772454809755838000,3.630837890625,-0.9837646484375,-0.2262115478515625,0.017059326171875
1772454809765856000,3.64085595703125,-0.988067626953125,-0.227996826171875,0.017822265625
1772454809775873000,3.650873046875,-0.9842529296875,-0.2234954833984375,0.0216827392578125
1772454809785891000,3.66089111328125,-0.9752655029296875,-0.2194061279296875,0.0240325927734375
1772454809795908900,3.670908935546875,-0.9691925048828125,-0.221893310546875,0.0232696533203125
1772454809805927000,3.680927001953125,-0.966339111328125,-0.2269287109375,0.022918701171875
1772454809815945200,3.6909453125,-0.96258544921875,-0.22906494140625,0.0249176025390625
1772454809825963000,3.700962890625,-0.957244873046875,-0.22698974609375,0.0261688232421875
1772454809835981000,3.71098095703125,-0.9577789306640625,-0.220977783203125,0.028717041015625
1772454809845998000,3.720998046875,-0.9647216796875,-0.2213287353515625,0.03204345703125
1772454809856016000,3.731015869140625,-0.968963623046875,-0.2234649658203125,0.0279541015625
1772454809866034000,3.741033935546875,-0.97039794921875,-0.2218017578125,0.0249786376953125
1772454809876052200,3.75105224609375,-0.9787139892578125,-0.221282958984375,0.0268096923828125
1772454809886070000,3.761070068359375,-0.9820709228515625,-0.222076416015625,0.0249786376953125
1772454809896088000,3.771088134765625,-0.985748291015625,-0.2232513427734375,0.0220489501953125
1772454809906105000,3.78110498046875,-0.9841156005859375,-0.2222747802734375,0.0200653076171875
1772454809916123100,3.791123046875,-0.9808807373046875,-0.2216949462890625,0.020843505859375
1772454809926141000,3.801140869140625,-0.971954345703125,-0.2226104736328125,0.021026611328125
1772454809936159200,3.8111591796875,-0.9624481201171875,-0.22613525390625,0.020050048828125
1772454809946177000,3.821177001953125,-0.9573822021484375,-0.22760009765625,0.022247314453125
1772454809956195000,3.831195068359375,-0.954925537109375,-0.2290802001953125,0.0236053466796875
1772454809966212900,3.841212890625,-0.9579315185546875,-0.2269287109375,0.0260467529296875
1772454809976230100,3.851230224609375,-0.967742919921875,-0.2269287109375,0.025390625
1772454809986248000,3.861248046875,-0.9756011962890625,-0.2261810302734375,0.02789306640625
1772454809996266000,3.871265869140625,-0.980255126953125,-0.2243499755859375,0.0301971435546875
1772454810006284000,3.881283935546875,-0.985321044921875,-0.2244873046875,0.029815673828125
1772454810016302000,3.891302001953125,-0.9883270263671875,-0.22259521484375,0.0299835205078125
1772454810026320000,3.90131982421875,-0.9886322021484375,-0.224609375,0.0302886962890625
1772454810036337000,3.9113369140625,-0.981231689453125,-0.2270660400390625,0.0277099609375
1772454810046355000,3.92135498046875,-0.9759368896484375,-0.223785400390625,0.0294647216796875
1772454810056373000,3.931373046875,-0.9676666259765625,-0.2230987548828125,0.0291900634765625
1772454810066391000,3.94139111328125,-0.9618072509765625,-0.2241363525390625,0.0285797119140625
1772454810076409000,3.9514091796875,-0.9629364013671875,-0.224639892578125,0.023406982421875
1772454810086427000,3.961427001953125,-0.965484619140625,-0.2251434326171875,0.0229949951171875
1772454810096444000,3.97144384765625,-0.96630859375,-0.22467041015625,0.0236663818359375
1772454810106462000,3.9814619140625,-0.9651947021484375,-0.2233734130859375,0.023193359375
1772454810116480000,3.99147998046875,-0.962921142578125,-0.22222900390625,0.0249786376953125
1772454810126498000,4.001498046875,-0.962249755859375,-0.2201995849609375,0.0298919677734375
1772454810136516000,4.01151611328125,-0.963714599609375,-0.2216644287109375,0.0287017822265625
1772454810146534000,4.021533935546875,-0.9669342041015625,-0.220733642578125,0.0252227783203125
1772454810156552200,4.03155224609375,-0.9748077392578125,-0.222015380859375,0.0273284912109375
1772454810166569000,4.04156884765625,-0.9779510498046875,-0.220977783203125,0.0282440185546875
1772454810176587000,4.0515869140625,-0.97821044921875,-0.2220001220703125,0.028228759765625
1772454810186605000,4.06160498046875,-0.9752655029296875,-0.2237396240234375,0.028289794921875
1772454810196623000,4.071623046875,-0.9725494384765625,-0.223175048828125,0.0281524658203125
1772454810206641000,4.081640869140625,-0.974273681640625,-0.2226104736328125,0.033966064453125
1772454810216659000,4.091658935546875,-0.972686767578125,-0.22186279296875,0.0357818603515625
1772454810226676000,4.101676025390625,-0.9716796875,-0.22271728515625,0.03338623046875
1772454810236694000,4.111694091796875,-0.968231201171875,-0.2241058349609375,0.0274810791015625
1772454810246712000,4.121712158203125,-0.967132568359375,-0.222991943359375,0.0269775390625
1772454810256730000,4.131730224609375,-0.96728515625,-0.2229461669921875,0.029571533203125
1772454810266748000,4.141747802734375,-0.9672088623046875,-0.2225189208984375,0.0274810791015625
1772454810276766000,4.151765869140625,-0.96478271484375,-0.2253570556640625,0.023681640625
1772454810286784000,4.161783935546875,-0.9604949951171875,-0.2242279052734375,0.0224456787109375
1772454810296801000,4.171801025390625,-0.959075927734375,-0.2255401611328125,0.0208587646484375
1772454810306819000,4.181819091796875,-0.9625244140625,-0.2257537841796875,0.02398681640625
1772454810316837000,4.191837158203125,-0.9700469970703125,-0.224273681640625,0.023956298828125
1772454810326855000,4.20185498046875,-0.97882080078125,-0.22454833984375,0.022491455078125
1772454810336873000,4.211873046875,-0.9860687255859375,-0.223297119140625,0.0165557861328125
1772454810346891000,4.22189111328125,-0.989501953125,-0.2224273681640625,0.01873779296875
1772454810356908000,4.231907958984375,-0.987457275390625,-0.2245330810546875,0.0240936279296875
1772454810366926000,4.241926025390625,-0.98486328125,-0.223785400390625,0.0264129638671875
1772454810376944000,4.251944091796875,-0.9775848388671875,-0.225372314453125,0.0271759033203125
1772454810386962000,4.2619619140625,-0.9696807861328125,-0.2248077392578125,0.0309906005859375
1772454810396980000,4.27197998046875,-0.9671173095703125,-0.22418212890625,0.029693603515625
1772454810406998000,4.281998046875,-0.9691619873046875,-0.2243194580078125,0.026214599609375
1772454810417016000,4.29201611328125,-0.9705047607421875,-0.2255706787109375,0.0262451171875
1772454810427032800,4.30203271484375,-0.9695281982421875,-0.2279052734375,0.029693603515625
1772454810437051100,4.312051025390625,-0.96820068359375,-0.229278564453125,0.031402587890625
1772454810447069000,4.32206884765625,-0.9726409912109375,-0.226654052734375,0.0254974365234375
1772454810457087000,4.3320869140625,-0.9752655029296875,-0.226470947265625,0.0255279541015625
1772454810467105000,4.34210498046875,-0.969024658203125,-0.2273712158203125,0.035797119140625
1772454810477123000,4.352123046875,-0.9513092041015625,-0.224853515625,0.0362701416015625
1772454810487139800,4.362139892578125,-0.936370849609375,-0.223846435546875,0.0264892578125
1772454810497158100,4.372158203125,-0.923065185546875,-0.22967529296875,0.01788330078125
1772454810507176000,4.382176025390625,-0.9443359375,-0.2285614013671875,0.0172882080078125
1772454810517194000,4.392194091796875,-0.962158203125,-0.2234039306640625,0.0169219970703125
1772454810527212000,4.4022119140625,-0.9727935791015625,-0.228179931640625,0.0201873779296875
1772454810537230000,4.41222998046875,-0.9775390625,-0.2269439697265625,0.0194854736328125
1772454810547246800,4.422246826171875,-0.985076904296875,-0.2204742431640625,0.0217132568359375
1772454810557265200,4.43226513671875,-0.99530029296875,-0.220855712890625,0.026275634765625
1772454810567283000,4.442282958984375,-1.00152587890625,-0.2227783203125,0.02520751953125
1772454810577301000,4.452301025390625,-0.999176025390625,-0.2258758544921875,0.0243072509765625
1772454810587318800,4.46231884765625,-0.98626708984375,-0.237884521484375,0.0130157470703125
1772454810597337000,4.472337158203125,-0.9630889892578125,-0.2278900146484375,0.0188751220703125
1772454810607353900,4.482353759765625,-0.9543914794921875,-0.213653564453125,0.0295562744140625
1772454810617372200,4.4923720703125,-0.9628753662109375,-0.22662353515625,0.021514892578125
1772454810627390000,4.502389892578125,-0.9686431884765625,-0.237030029296875,0.01806640625
1772454810637408000,4.512407958984375,-0.971893310546875,-0.237060546875,0.021881103515625
1772454810647425800,4.52242578125,-0.9749298095703125,-0.2315216064453125,0.02252197265625
1772454810657444000,4.532444091796875,-0.97705078125,-0.229156494140625,0.025787353515625
1772454810667462100,4.542462158203125,-0.9765777587890625,-0.228759765625,0.0295257568359375
1772454810677479000,4.55247900390625,-0.96728515625,-0.2276153564453125,0.033966064453125
1772454810687497000,4.5624970703125,-0.961578369140625,-0.227447509765625,0.030364990234375
1772454810697515000,4.572514892578125,-0.956756591796875,-0.227813720703125,0.0243988037109375
1772454810707532800,4.58253271484375,-0.953216552734375,-0.226593017578125,0.0205230712890625
1772454810717551000,4.592551025390625,-0.9538116455078125,-0.22760009765625,0.0171356201171875
1772454810727569200,4.602569091796875,-0.9558563232421875,-0.2271881103515625,0.02008056640625
1772454810737586000,4.6125859375,-0.95843505859375,-0.2283477783203125,0.01959228515625
1772454810747604000,4.62260400390625,-0.9642791748046875,-0.2289581298828125,0.020538330078125
1772454810757622000,4.6326220703125,-0.9700164794921875,-0.2258758544921875,0.0209197998046875
1772454810767639800,4.642639892578125,-0.97564697265625,-0.223602294921875,0.0200958251953125
1772454810777658000,4.652658203125,-0.978271484375,-0.2250823974609375,0.0193328857421875
1772454810787676200,4.66267626953125,-0.979949951171875,-0.227630615234375,0.0208740234375
1772454810797693000,4.67269287109375,-0.979248046875,-0.228302001953125,0.023193359375
1772454810807711000,4.6827109375,-0.970794677734375,-0.2276763916015625,0.0250701904296875
1772454810817729000,4.69272900390625,-0.9659423828125,-0.23028564453125,0.025482177734375
1772454810827747000,4.7027470703125,-0.96533203125,-0.23211669921875,0.0252532958984375
1772454810837764900,4.712764892578125,-0.970458984375,-0.230377197265625,0.026153564453125
1772454810847783200,4.722783203125,-0.972076416015625,-0.23004150390625,0.0231475830078125
1772454810857801000,4.732801025390625,-0.9720458984375,-0.228118896484375,0.02874755859375
1772454810867818000,4.74281787109375,-0.96728515625,-0.2237548828125,0.031280517578125
1772454810877836000,4.7528359375,-0.96728515625,-0.2255401611328125,0.026885986328125
1772454810887854000,4.76285400390625,-0.9669952392578125,-0.2293853759765625,0.0235137939453125
1772454810897872000,4.772871826171875,-0.962432861328125,-0.2294158935546875,0.0237274169921875
1772454810907890200,4.78289013671875,-0.9621429443359375,-0.225433349609375,0.0293121337890625
1772454810917908000,4.792907958984375,-0.9601287841796875,-0.224090576171875,0.032745361328125
1772454810927925000,4.802925048828125,-0.9606475830078125,-0.2260284423828125,0.02642822265625
1772454810937943000,4.812943115234375,-0.96759033203125,-0.2279052734375,0.01898193359375
1772454810947961000,4.822961181640625,-0.97174072265625,-0.2294921875,0.01873779296875
1772454810957979000,4.832978759765625,-0.972442626953125,-0.2308349609375,0.0250091552734375
1772454810967997200,4.8429970703125,-0.9720001220703125,-0.2275543212890625,0.02410888671875
1772454810978015000,4.853014892578125,-0.972930908203125,-0.2259521484375,0.0199737548828125
1772454810988032000,4.863031982421875,-0.9820404052734375,-0.2269287109375,0.0203094482421875
1772454810998050000,4.873050048828125,-0.985137939453125,-0.229736328125,0.01727294921875
1772454811008068000,4.883068115234375,-0.976898193359375,-0.227325439453125,0.0236663818359375
1772454811018086000,4.8930859375,-0.969146728515625,-0.2253265380859375,0.0289154052734375
1772454811028104200,4.903104248046875,-0.962860107421875,-0.2296295166015625,0.0244140625
1772454811038122000,4.9131220703125,-0.9608154296875,-0.232818603515625,0.0215911865234375
1772454811048140000,4.92314013671875,-0.959747314453125,-0.2337799072265625,0.022613525390625
1772454811058157000,4.933156982421875,-0.960113525390625,-0.232208251953125,0.02313232421875
1772454811068175000,4.943175048828125,-0.967864990234375,-0.2315521240234375,0.0266265869140625
1772454811078193000,4.95319287109375,-0.9774169921875,-0.2313995361328125,0.0274810791015625
1772454811088211000,4.9632109375,-0.98095703125,-0.226959228515625,0.02935791015625
1772454811098229000,4.97322900390625,-0.9801788330078125,-0.2260284423828125,0.0297088623046875
1772454811108247000,4.9832470703125,-0.9782257080078125,-0.2288665771484375,0.025360107421875
1772454811118264000,4.99326416015625,-0.9762115478515625,-0.23236083984375,0.020477294921875
1772454811128282000,5.0032822265625,-0.9700469970703125,-0.2305450439453125,0.01824951171875
1772454811138300000,5.0132998046875,-0.9649658203125,-0.2295379638671875,0.0234527587890625
1772454811148318000,5.02331787109375,-0.9608001708984375,-0.2303314208984375,0.0265960693359375
1772454811158336000,5.0333359375,-0.964019775390625,-0.231170654296875,0.022857666015625
1772454811168354000,5.04335400390625,-0.9700469970703125,-0.2317047119140625,0.01983642578125
1772454811178371800,5.053371826171875,-0.970733642578125,-0.2307586669921875,0.0239410400390625
1772454811188389000,5.06338916015625,-0.9689483642578125,-0.2263946533203125,0.027008056640625
1772454811198407000,5.073406982421875,-0.969818115234375,-0.228515625,0.021209716796875
1772454811208425000,5.083425048828125,-0.97222900390625,-0.229248046875,0.0163726806640625
1772454811218443000,5.093443115234375,-0.9782867431640625,-0.2265167236328125,0.0180206298828125
1772454811228461000,5.1034609375,-0.9770660400390625,-0.228729248046875,0.0202484130859375
1772454811238478800,5.113478759765625,-0.971435546875,-0.228240966796875,0.0250244140625
1772454811248496000,5.12349609375,-0.9656982421875,-0.2267303466796875,0.026397705078125
1772454811258514000,5.133513916015625,-0.9592437744140625,-0.2293243408203125,0.024627685546875
1772454811268532000,5.143531982421875,-0.95489501953125,-0.2301483154296875,0.0260162353515625
1772454811278550000,5.153550048828125,-0.9533233642578125,-0.22991943359375,0.026153564453125
1772454811288568000,5.163568115234375,-0.9544830322265625,-0.226593017578125,0.024139404296875
1772454811298585900,5.1735859375,-0.960235595703125,-0.2263946533203125,0.0209503173828125
1772454811308603100,5.18360302734375,-0.96185302734375,-0.22711181640625,0.0223236083984375
1772454811318621000,5.193620849609375,-0.9623565673828125,-0.2244415283203125,0.0263519287109375
1772454811328639000,5.203638916015625,-0.9694061279296875,-0.2219390869140625,0.0272369384765625
1772454811338657000,5.213656982421875,-0.9810638427734375,-0.2224884033203125,0.022796630859375
1772454811348675000,5.223675048828125,-0.98443603515625,-0.2223968505859375,0.0211181640625
1772454811358692900,5.23369287109375,-0.9797515869140625,-0.2254791259765625,0.0229034423828125
1772454811368710100,5.243710205078125,-0.96954345703125,-0.2239990234375,0.021453857421875
1772454811378728000,5.25372802734375,-0.9708404541015625,-0.2234039306640625,0.0169525146484375
1772454811388746000,5.26374609375,-0.9764404296875,-0.2237091064453125,0.0126800537109375
1772454811398763800,5.273763671875,-0.97332763671875,-0.22607421875,0.0196990966796875
1772454811408782000,5.283781982421875,-0.9687957763671875,-0.22503662109375,0.021087646484375
1772454811418799900,5.2937998046875,-0.9654541015625,-0.2230987548828125,0.01751708984375
1772454811428818000,5.30381787109375,-0.9669189453125,-0.2264556884765625,0.0155487060546875
1772454811438835000,5.3138349609375,-0.9669036865234375,-0.229248046875,0.0120086669921875
1772454811448853000,5.32385302734375,-0.96234130859375,-0.22698974609375,0.014434814453125
1772454811458870800,5.333870849609375,-0.95526123046875,-0.2236175537109375,0.01788330078125
1772454811468889000,5.34388916015625,-0.95526123046875,-0.2220611572265625,0.01446533203125
1772454811478907100,5.3539072265625,-0.9602813720703125,-0.22320556640625,0.015899658203125
1772454811488925000,5.363925048828125,-0.966796875,-0.2195281982421875,0.0167999267578125
1772454811498942000,5.37394189453125,-0.972412109375,-0.217010498046875,0.01922607421875
1772454811508960000,5.3839599609375,-0.9792327880859375,-0.218902587890625,0.0175018310546875
1772454811518977800,5.393977783203125,-0.9803924560546875,-0.2163543701171875,0.0135345458984375
1772454811528996000,5.40399609375,-0.980255126953125,-0.2145233154296875,0.012725830078125
1772454811539014100,5.41401416015625,-0.975250244140625,-0.2159881591796875,0.0173492431640625
1772454811549032000,5.424031982421875,-0.9687042236328125,-0.2161865234375,0.021514892578125
1772454811559049000,5.434049072265625,-0.964691162109375,-0.216766357421875,0.0224151611328125
1772454811569067000,5.44406689453125,-0.9630279541015625,-0.2202301025390625,0.0211334228515625
1772454811579085000,5.4540849609375,-0.9693756103515625,-0.2232513427734375,0.0203704833984375
1772454811589103000,5.46410302734375,-0.97137451171875,-0.2223968505859375,0.0214385986328125
1772454811599121200,5.47412109375,-0.9756011962890625,-0.223876953125,0.02313232421875
1772454811609139000,5.484138916015625,-0.9807281494140625,-0.222686767578125,0.0221099853515625
1772454811619156000,5.494156005859375,-0.983306884765625,-0.2230377197265625,0.022064208984375
1772454811629174000,5.504174072265625,-0.981658935546875,-0.2227325439453125,0.0238800048828125
1772454811639192000,5.514192138671875,-0.97381591796875,-0.2227935791015625,0.0230865478515625
1772454811649209900,5.5242099609375,-0.9678192138671875,-0.223724365234375,0.0218505859375
1772454811659228200,5.534228271484375,-0.9649200439453125,-0.225006103515625,0.024993896484375
1772454811669246000,5.544245849609375,-0.9647216796875,-0.2236785888671875,0.0235443115234375
1772454811679264000,5.554263916015625,-0.968017578125,-0.224853515625,0.0235137939453125
1772454811689281000,5.564281005859375,-0.9703216552734375,-0.2231597900390625,0.0259246826171875
1772454811699299000,5.574299072265625,-0.968353271484375,-0.220550537109375,0.0235748291015625
1772454811709316900,5.58431689453125,-0.9660491943359375,-0.2210235595703125,0.019073486328125
1772454811719335200,5.594335205078125,-0.9714508056640625,-0.2190399169921875,0.017242431640625
1772454811729353000,5.60435302734375,-0.9742889404296875,-0.21771240234375,0.014434814453125
1772454811739371000,5.61437109375,-0.974395751953125,-0.2180633544921875,0.0164642333984375
1772454811749388000,5.624387939453125,-0.9743194580078125,-0.215789794921875,0.017486572265625
1772454811759406000,5.634406005859375,-0.9693450927734375,-0.2165679931640625,0.0165557861328125
1772454811769424000,5.644423828125,-0.966278076171875,-0.2173919677734375,0.017791748046875
1772454811779442200,5.654442138671875,-0.9654693603515625,-0.2193450927734375,0.0211181640625
1772454811789460000,5.6644599609375,-0.964141845703125,-0.2202606201171875,0.02203369140625
1772454811799478000,5.67447802734375,-0.963348388671875,-0.2201385498046875,0.022613525390625
1772454811809495000,5.6844951171875,-0.9642333984375,-0.2202301025390625,0.022003173828125
1772454811819513000,5.69451318359375,-0.969879150390625,-0.2202606201171875,0.018157958984375
1772454811829531000,5.70453076171875,-0.9753875732421875,-0.2215576171875,0.0166168212890625
1772454811839549200,5.714549072265625,-0.9804229736328125,-0.2208404541015625,0.018463134765625
1772454811849567000,5.72456689453125,-0.9795989990234375,-0.2202606201171875,0.0204315185546875
1772454811859585000,5.7345849609375,-0.9795989990234375,-0.2202606201171875,0.0210418701171875
1772454811869602000,5.74460205078125,-0.9798736572265625,-0.220794677734375,0.019927978515625
1772454811879620000,5.7546201171875,-0.9787750244140625,-0.219818115234375,0.0206756591796875
1772454811889638000,5.764637939453125,-0.97528076171875,-0.2186431884765625,0.0238189697265625
1772454811899656000,5.774656005859375,-0.97088623046875,-0.2209625244140625,0.0256500244140625
1772454811909674000,5.784674072265625,-0.970733642578125,-0.219757080078125,0.0199127197265625
1772454811919692000,5.794692138671875,-0.9734954833984375,-0.2189483642578125,0.0162811279296875
1772454811929709000,5.804708984375,-0.9757843017578125,-0.2161865234375,0.0220184326171875
1772454811939727000,5.81472705078125,-0.97601318359375,-0.2176055908203125,0.024688720703125
1772454811949745000,5.824744873046875,-0.9734344482421875,-0.218719482421875,0.017303466796875
1772454811959763000,5.834762939453125,-0.974090576171875,-0.2183990478515625,0.0152740478515625
1772454811969781000,5.844781005859375,-0.9716644287109375,-0.2196044921875,0.021484375
1772454811979799000,5.854799072265625,-0.96771240234375,-0.219207763671875,0.0227813720703125
1772454811989816800,5.86481689453125,-0.9672393798828125,-0.2203369140625,0.0189208984375
1772454811999833900,5.874833740234375,-0.9688873291015625,-0.2205810546875,0.0196990966796875
1772454812009851600,5.8848515625,-0.972320556640625,-0.21917724609375,0.0194854736328125
1772454812019869700,5.89486962890625,-0.970916748046875,-0.220367431640625,0.0221710205078125
1772454812029887700,5.9048876953125,-0.970428466796875,-0.2202606201171875,0.0230560302734375
1772454812039905800,5.91490576171875,-0.967926025390625,-0.219696044921875,0.0223236083984375
1772454812049923600,5.924923583984375,-0.96734619140625,-0.2184295654296875,0.0198974609375
1772454812059940900,5.93494091796875,-0.969879150390625,-0.2190399169921875,0.0218048095703125
1772454812069958700,5.944958740234375,-0.9723358154296875,-0.219451904296875,0.0193023681640625
1772454812079976700,5.954976806640625,-0.97283935546875,-0.2208709716796875,0.0168914794921875
1772454812089994800,5.964994873046875,-0.9721221923828125,-0.22100830078125,0.0182342529296875
1772454812100012800,5.9750126953125,-0.9705657958984375,-0.2205352783203125,0.017333984375
1772454812110030600,5.985030517578125,-0.97137451171875,-0.2203826904296875,0.0167999267578125
1772454812120047900,5.9950478515625,-0.972503662109375,-0.2206878662109375,0.014801025390625
1772454812130065700,6.005065673828125,-0.9734954833984375,-0.21923828125,0.01806640625
1772454812140083700,6.015083740234375,-0.970733642578125,-0.2213897705078125,0.02215576171875
1772454812150101800,6.025101806640625,-0.9701995849609375,-0.223876953125,0.020782470703125
1772454812160119800,6.035119873046875,-0.97393798828125,-0.2211761474609375,0.0199737548828125
1772454812170137600,6.0451376953125,-0.97607421875,-0.2197418212890625,0.0183258056640625
1772454812180155000,6.05515478515625,-0.9804840087890625,-0.217803955078125,0.0179901123046875
1772454812190172700,6.065172607421875,-0.98089599609375,-0.2179107666015625,0.0166168212890625
1772454812200190700,6.075190673828125,-0.9772796630859375,-0.216400146484375,0.01861572265625
1772454812210208800,6.085208740234375,-0.9726409912109375,-0.2144927978515625,0.021942138671875
1772454812220226800,6.095226806640625,-0.9692230224609375,-0.2164154052734375,0.0195770263671875
1772454812230244600,6.10524462890625,-0.9670867919921875,-0.2188568115234375,0.017791748046875
1772454812240262000,6.115261962890625,-0.9649505615234375,-0.218841552734375,0.0216827392578125
1772454812250279700,6.12527978515625,-0.9634552001953125,-0.2203216552734375,0.0244903564453125
1772454812260297700,6.135297607421875,-0.964111328125,-0.2179107666015625,0.0239105224609375
1772454812270315500,6.1453154296875,-0.9682769775390625,-0.2174072265625,0.022247314453125
1772454812280333800,6.155333740234375,-0.9706268310546875,-0.21881103515625,0.021331787109375
1772454812290351600,6.1653515625,-0.971435546875,-0.2200775146484375,0.019439697265625
1772454812300369700,6.17536962890625,-0.971099853515625,-0.2159423828125,0.017852783203125
1772454812310386700,6.18538671875,-0.968902587890625,-0.215911865234375,0.018951416015625
1772454812320404700,6.19540478515625,-0.9687347412109375,-0.2187652587890625,0.022735595703125
1772454812330422500,6.205422607421875,-0.9693756103515625,-0.2188873291015625,0.018798828125
1772454812340440800,6.21544091796875,-0.9737091064453125,-0.21783447265625,0.0169677734375
1772454812350459000,6.225458984375,-0.9778900146484375,-0.2176513671875,0.01837158203125
1772454812360476700,6.2354765625,-0.97991943359375,-0.21844482421875,0.0189208984375
1772454812370493700,6.24549365234375,-0.9809112548828125,-0.2188262939453125,0.0194854736328125
1772454812380511700,6.25551171875,-0.9825897216796875,-0.219451904296875,0.023590087890625
1772454812390529500,6.265529541015625,-0.9790802001953125,-0.2169952392578125,0.0235748291015625
1772454812400547800,6.2755478515625,-0.9756927490234375,-0.2182159423828125,0.019439697265625
1772454812410566000,6.28556591796875,-0.973602294921875,-0.2195281982421875,0.0155181884765625
1772454812420583700,6.295583740234375,-0.970703125,-0.2198944091796875,0.01715087890625
1772454812430600700,6.3056005859375,-0.9670562744140625,-0.21893310546875,0.017822265625
1772454812440618800,6.31561865234375,-0.9649200439453125,-0.2180023193359375,0.02203369140625
1772454812450636500,6.325636474609375,-0.9672088623046875,-0.2194671630859375,0.0219268798828125
1772454812460654800,6.33565478515625,-0.9708251953125,-0.2177886962890625,0.0203399658203125
1772454812470673000,6.3456728515625,-0.9725341796875,-0.217437744140625,0.017913818359375
1772454812480690700,6.355690673828125,-0.9722442626953125,-0.216278076171875,0.01739501953125
1772454812490707700,6.365707763671875,-0.9688873291015625,-0.2169952392578125,0.01727294921875
1772454812500725800,6.375725830078125,-0.96435546875,-0.217315673828125,0.017425537109375
1772454812510743800,6.385743896484375,-0.962554931640625,-0.21746826171875,0.014129638671875
1772454812520761900,6.395761962890625,-0.9674224853515625,-0.2199249267578125,0.0149993896484375
1772454812530780000,6.40577978515625,-0.973175048828125,-0.2188568115234375,0.018524169921875
1772454812540797700,6.415797607421875,-0.97607421875,-0.217376708984375,0.017059326171875
1772454812550815700,6.425815673828125,-0.9786529541015625,-0.2157440185546875,0.015899658203125
1772454812560832800,6.435832763671875,-0.9808502197265625,-0.2157440185546875,0.017364501953125
1772454812570850800,6.445850830078125,-0.9804534912109375,-0.218597412109375,0.019561767578125
1772454812580868600,6.45586865234375,-0.978607177734375,-0.2186279296875,0.01837158203125
1772454812590887000,6.465886962890625,-0.9723968505859375,-0.217681884765625,0.01422119140625
1772454812600904700,6.47590478515625,-0.9680023193359375,-0.21844482421875,0.0161285400390625
1772454812610922800,6.4859228515625,-0.9668121337890625,-0.2194976806640625,0.018890380859375
1772454812620939800,6.495939697265625,-0.9623260498046875,-0.2201690673828125,0.0180206298828125
1772454812630957800,6.505957763671875,-0.961334228515625,-0.2189483642578125,0.020172119140625
1772454812640975600,6.5159755859375,-0.9625091552734375,-0.218597412109375,0.021514892578125
1772454812650994000,6.525993896484375,-0.967041015625,-0.21746826171875,0.02471923828125
1772454812661011700,6.53601171875,-0.9705810546875,-0.2194061279296875,0.0218353271484375
1772454812671029800,6.54602978515625,-0.97314453125,-0.221221923828125,0.0174407958984375
1772454812681046800,6.556046875,-0.9754638671875,-0.2188262939453125,0.01922607421875
1772454812691064800,6.56606494140625,-0.9783782958984375,-0.215606689453125,0.0177764892578125
1772454812701082600,6.57608251953125,-0.979400634765625,-0.215728759765625,0.01654052734375
1772454812711101000,6.586100830078125,-0.976654052734375,-0.21795654296875,0.0181121826171875
1772454812721118700,6.59611865234375,-0.9725799560546875,-0.2183837890625,0.0215606689453125
1772454812731136800,6.60613671875,-0.9726409912109375,-0.2175140380859375,0.02130126953125
1772454812741153800,6.61615380859375,-0.9691314697265625,-0.2191619873046875,0.0221710205078125
1772454812751171800,6.626171875,-0.966461181640625,-0.2176361083984375,0.0224151611328125
1772454812761189600,6.636189697265625,-0.9642333984375,-0.2160186767578125,0.02166748046875
1772454812771208000,6.6462080078125,-0.96990966796875,-0.219635009765625,0.0184478759765625
1772454812781225700,6.656225830078125,-0.9728851318359375,-0.21722412109375,0.0179595947265625
1772454812791243800,6.666243896484375,-0.973175048828125,-0.215484619140625,0.021026611328125
1772454812801260800,6.6762607421875,-0.9741058349609375,-0.2163543701171875,0.0221099853515625
1772454812811278800,6.68627880859375,-0.97515869140625,-0.216705322265625,0.0200958251953125
1772454812821296600,6.696296630859375,-0.9748992919921875,-0.2174072265625,0.019195556640625
1772454812831314700,6.706314697265625,-0.971038818359375,-0.217193603515625,0.021820068359375
1772454812841332700,6.716332763671875,-0.96868896484375,-0.217559814453125,0.0204010009765625
1772454812851350800,6.726350830078125,-0.9677581787109375,-0.217864990234375,0.020416259765625
1772454812861367800,6.736367919921875,-0.9674072265625,-0.215667724609375,0.022918701171875
1772454812871385900,6.7463857421875,-0.9644775390625,-0.21649169921875,0.023193359375
1772454812881403600,6.756403564453125,-0.96234130859375,-0.2192840576171875,0.0213775634765625
1772454812891421700,6.766421630859375,-0.9615020751953125,-0.2174072265625,0.02191162109375
1772454812901439700,6.776439697265625,-0.963104248046875,-0.216278076171875,0.0240936279296875
1772454812911457800,6.786457763671875,-0.972808837890625,-0.218719482421875,0.021942138671875
1772454812921474800,6.796474853515625,-0.9723052978515625,-0.2174072265625,0.019775390625
1772454812931492900,6.806492919921875,-0.972259521484375,-0.2164459228515625,0.02093505859375
1772454812941510700,6.8165107421875,-0.96722412109375,-0.216064453125,0.0183868408203125
1772454812951528700,6.82652880859375,-0.9639129638671875,-0.2188720703125,0.0205230712890625
1772454812961546800,6.836546630859375,-0.964630126953125,-0.2164764404296875,0.0212554931640625
1772454812971564800,6.846564697265625,-0.9691162109375,-0.2125244140625,0.0188446044921875
1772454812981581600,6.85658154296875,-0.9756011962890625,-0.210418701171875,0.021820068359375
1772454812991599900,6.866599853515625,-0.9798736572265625,-0.210845947265625,0.0272369384765625
1772454813001618000,6.876617919921875,-0.986572265625,-0.2135009765625,0.0243377685546875
1772454813011636000,6.886635986328125,-0.9920654296875,-0.210205078125,0.022369384765625
1772454813021654000,6.896654052734375,-0.9886016845703125,-0.2103424072265625,0.0223388671875
1772454813031672000,6.906672119140625,-0.98370361328125,-0.2082366943359375,0.0216827392578125
1772454813041689900,6.91668994140625,-0.9821319580078125,-0.2083892822265625,0.0227508544921875
1772454813051707100,6.92670703125,-0.9756927490234375,-0.2112884521484375,0.023345947265625
1772454813061725000,6.936724853515625,-0.971893310546875,-0.21258544921875,0.02239990234375
1772454813071743000,6.946742919921875,-0.9707794189453125,-0.2119293212890625,0.023345947265625
1772454813081760800,6.9567607421875,-0.974517822265625,-0.211181640625,0.022186279296875
1772454813091779000,6.966779052734375,-0.97406005859375,-0.211822509765625,0.020904541015625
1772454813101796900,6.976796875,-0.9719390869140625,-0.2121734619140625,0.0225830078125
1772454813111814100,6.986814208984375,-0.9700469970703125,-0.2116851806640625,0.0218963623046875
1772454813121832000,6.99683203125,-0.9717254638671875,-0.2115325927734375,0.0192108154296875
1772454813131850000,7.00685009765625,-0.9706573486328125,-0.2118072509765625,0.0190277099609375
1772454813141867800,7.01686767578125,-0.97174072265625,-0.2126617431640625,0.02117919921875
1772454813151886000,7.026885986328125,-0.97393798828125,-0.21295166015625,0.01995849609375
1772454813161903900,7.03690380859375,-0.9743499755859375,-0.21148681640625,0.0183563232421875
1772454813171921000,7.0469208984375,-0.9769744873046875,-0.2120208740234375,0.0179901123046875
1772454813181939000,7.05693896484375,-0.97802734375,-0.2123260498046875,0.021087646484375
1772454813191957000,7.06695703125,-0.980224609375,-0.21307373046875,0.0216522216796875
1772454813201974800,7.076974853515625,-0.97540283203125,-0.21307373046875,0.022125244140625
1772454813211993000,7.0869931640625,-0.975341796875,-0.212677001953125,0.0233154296875
1772454813222011000,7.097010986328125,-0.9717254638671875,-0.20965576171875,0.0233917236328125
1772454813232028000,7.10702783203125,-0.9687042236328125,-0.2079925537109375,0.0238189697265625
1772454813242046000,7.1170458984375,-0.9678802490234375,-0.211090087890625,0.0266571044921875
1772454813252064000,7.12706396484375,-0.9658355712890625,-0.2121429443359375,0.0257415771484375
1772454813262081800,7.137081787109375,-0.9656829833984375,-0.2100372314453125,0.025421142578125
1772454813272100000,7.14710009765625,-0.96600341796875,-0.2103424072265625,0.025360107421875
1772454813282118000,7.157117919921875,-0.9635162353515625,-0.2114105224609375,0.0211334228515625
1772454813292135000,7.167135009765625,-0.9658966064453125,-0.212432861328125,0.0171051025390625
1772454813302153000,7.177153076171875,-0.96929931640625,-0.2122344970703125,0.019287109375
1772454813312171000,7.1871708984375,-0.9705657958984375,-0.21246337890625,0.0181427001953125
1772454813322188800,7.197188720703125,-0.973602294921875,-0.212646484375,0.0195159912109375
1772454813332206800,7.207206787109375,-0.97613525390625,-0.21240234375,0.0182952880859375
1772454813342225000,7.217224853515625,-0.9768524169921875,-0.211456298828125,0.0209503173828125
1772454813352242000,7.227241943359375,-0.9746856689453125,-0.210906982421875,0.0214385986328125
1772454813362260000,7.237260009765625,-0.9754486083984375,-0.20947265625,0.02008056640625
1772454813372278000,7.247278076171875,-0.97711181640625,-0.2125396728515625,0.019073486328125
1772454813382295800,7.2572958984375,-0.9779205322265625,-0.21429443359375,0.0188751220703125
1772454813392313900,7.26731396484375,-0.974395751953125,-0.21142578125,0.019805908203125
1772454813402332000,7.277331787109375,-0.9716796875,-0.21014404296875,0.02020263671875
1772454813412349000,7.287348876953125,-0.9693145751953125,-0.211151123046875,0.0205535888671875
1772454813422367000,7.297366943359375,-0.968841552734375,-0.210662841796875,0.0230865478515625
1772454813432385000,7.307385009765625,-0.968048095703125,-0.211212158203125,0.024078369140625
1772454813442402800,7.31740283203125,-0.9690399169921875,-0.2110748291015625,0.0224609375
1772454813452420900,7.3274208984375,-0.9694671630859375,-0.21221923828125,0.0210418701171875
1772454813462439000,7.33743896484375,-0.97064208984375,-0.2132720947265625,0.0197906494140625
1772454813472456000,7.3474560546875,-0.970489501953125,-0.21209716796875,0.022613525390625
1772454813482473700,7.3574736328125,-0.968353271484375,-0.2127838134765625,0.02496337890625
1772454813492492000,7.367491943359375,-0.9673004150390625,-0.211883544921875,0.025146484375
1772454813502509800,7.377509765625,-0.9699859619140625,-0.2099609375,0.02252197265625
1772454813512528000,7.38752783203125,-0.9749908447265625,-0.20904541015625,0.0241851806640625
1772454813522546000,7.3975458984375,-0.9763641357421875,-0.209625244140625,0.0230255126953125
1772454813532563000,7.40756298828125,-0.9773406982421875,-0.2108001708984375,0.0254974365234375
1772454813542580700,7.417580810546875,-0.9756317138671875,-0.2105865478515625,0.02606201171875
1772454813552599000,7.42759912109375,-0.9707489013671875,-0.209564208984375,0.0223541259765625
1772454813562616800,7.437616943359375,-0.9691925048828125,-0.2129058837890625,0.018646240234375
1772454813572635000,7.447634765625,-0.968902587890625,-0.2146148681640625,0.017333984375
1772454813582653000,7.45765283203125,-0.966461181640625,-0.213897705078125,0.0195770263671875
1772454813592670000,7.467669921875,-0.9697418212890625,-0.21258544921875,0.023162841796875
1772454813602687700,7.477687744140625,-0.9716796875,-0.2115478515625,0.0208892822265625
1772454813612706000,7.4877060546875,-0.9748687744140625,-0.2103118896484375,0.0186614990234375
1772454813622723800,7.497723876953125,-0.9816741943359375,-0.20977783203125,0.0223236083984375
1772454813632742000,7.507741943359375,-0.9857635498046875,-0.2094268798828125,0.0221405029296875
1772454813642759700,7.517759765625,-0.9904632568359375,-0.2100067138671875,0.017242431640625
1772454813652778000,7.527778076171875,-0.991363525390625,-0.2110137939453125,0.015533447265625
1772454813662794800,7.537794677734375,-0.992218017578125,-0.210540771484375,0.0152130126953125
1772454813672813000,7.54781298828125,-0.9889678955078125,-0.2098846435546875,0.01824951171875
1772454813682830800,7.557830810546875,-0.9817047119140625,-0.2093353271484375,0.0233001708984375
1772454813692849000,7.567848876953125,-0.975494384765625,-0.2092437744140625,0.02520751953125
1772454813702866700,7.57786669921875,-0.9706268310546875,-0.2098236083984375,0.0245361328125
1772454813712885000,7.587885009765625,-0.9678802490234375,-0.208465576171875,0.0242919921875
1772454813722901800,7.59790185546875,-0.9680023193359375,-0.210601806640625,0.025146484375
1772454813732919800,7.607919921875,-0.9654693603515625,-0.21246337890625,0.0236358642578125
1772454813742937900,7.617937744140625,-0.968109130859375,-0.212921142578125,0.0206451416015625
1772454813752956000,7.627955810546875,-0.96978759765625,-0.212310791015625,0.021240234375
1772454813762974000,7.637973876953125,-0.970458984375,-0.21044921875,0.0220184326171875
1772454813772992000,7.647991943359375,-0.9730377197265625,-0.210968017578125,0.021881103515625
1772454813783008800,7.6580087890625,-0.9727020263671875,-0.2111968994140625,0.0215606689453125
1772454813793026800,7.66802685546875,-0.974151611328125,-0.2096710205078125,0.0225830078125
1772454813803044900,7.678044921875,-0.9715728759765625,-0.2076568603515625,0.023284912109375
1772454813813063000,7.68806298828125,-0.9742279052734375,-0.2066650390625,0.0229339599609375
1772454813823081000,7.6980810546875,-0.9769287109375,-0.2084503173828125,0.0229949951171875
1772454813833099000,7.70809912109375,-0.9770050048828125,-0.2092437744140625,0.021728515625
1772454813843115800,7.71811572265625,-0.9776611328125,-0.2089996337890625,0.02386474609375
1772454813853133800,7.7281337890625,-0.976898193359375,-0.2086334228515625,0.0239105224609375
1772454813863152000,7.738152099609375,-0.9766998291015625,-0.2062225341796875,0.02252197265625
1772454813873170000,7.748169921875,-0.9777069091796875,-0.20611572265625,0.024566650390625
1772454813883188000,7.75818798828125,-0.97698974609375,-0.2059173583984375,0.0238037109375
1772454813893205800,7.768205810546875,-0.97412109375,-0.205596923828125,0.0250701904296875
1772454813903222800,7.778222900390625,-0.9735107421875,-0.20721435546875,0.0253448486328125
1772454813913240800,7.78824072265625,-0.9748382568359375,-0.2081146240234375,0.02081298828125
1772454813923259100,7.798259033203125,-0.980865478515625,-0.2123260498046875,0.017120361328125
1772454813933277000,7.80827685546875,-0.983795166015625,-0.211395263671875,0.015655517578125
1772454813943295000,7.818294921875,-0.9812469482421875,-0.21044921875,0.0173492431640625
1772454813953312800,7.828312744140625,-0.9790496826171875,-0.2083892822265625,0.019317626953125
1772454813963329800,7.838329833984375,-0.9710235595703125,-0.20831298828125,0.02056884765625
1772454813973347800,7.848347900390625,-0.965545654296875,-0.208892822265625,0.0205078125
1772454813983366000,7.858365966796875,-0.9605255126953125,-0.2127227783203125,0.0196685791015625
1772454813993384000,7.868384033203125,-0.9604034423828125,-0.2117462158203125,0.0194549560546875
1772454814003402200,7.87840234375,-0.9642486572265625,-0.21160888671875,0.0196990966796875
1772454814013420300,7.888420166015625,-0.9706573486328125,-0.208648681640625,0.02117919921875
1772454814023437300,7.898437255859375,-0.9728851318359375,-0.2091217041015625,0.021820068359375
1772454814033455000,7.908455078125,-0.979949951171875,-0.207244873046875,0.0264434814453125
1772454814043473200,7.91847314453125,-0.985198974609375,-0.20404052734375,0.0287017822265625
1772454814053491500,7.928491455078125,-0.982574462890625,-0.205413818359375,0.02471923828125
1772454814063509200,7.93850927734375,-0.9769287109375,-0.209442138671875,0.02294921875
1772454814073527300,7.94852734375,-0.974517822265625,-0.2100830078125,0.02081298828125
1772454814083544300,7.95854443359375,-0.9713134765625,-0.2120819091796875,0.020599365234375
1772454814093562000,7.96856201171875,-0.966339111328125,-0.2143402099609375,0.01922607421875
1772454814103580200,7.978580078125,-0.96197509765625,-0.2151947021484375,0.020751953125
1772454814113598500,7.988598388671875,-0.9624481201171875,-0.2156982421875,0.021759033203125
1772454814123616300,7.9986162109375,-0.9642791748046875,-0.215789794921875,0.0214996337890625
1772454814133634300,8.00863427734375,-0.966278076171875,-0.21246337890625,0.0221405029296875
1772454814143651300,8.0186513671875,-0.969482421875,-0.21026611328125,0.02020263671875
1772454814153669400,8.02866943359375,-0.9762115478515625,-0.21026611328125,0.019195556640625
1772454814163687200,8.038687255859376,-0.9779205322265625,-0.208160400390625,0.016632080078125
1772454814173705200,8.048705322265626,-0.9748077392578125,-0.2079620361328125,0.0173187255859375
1772454814183723300,8.05872314453125,-0.96954345703125,-0.20758056640625,0.0202484130859375
1772454814193741300,8.0687412109375,-0.971954345703125,-0.2070770263671875,0.0180816650390625
1772454814203758300,8.07875830078125,-0.9754638671875,-0.2101898193359375,0.0159912109375
1772454814213776400,8.0887763671875,-0.9786224365234375,-0.20880126953125,0.018646240234375
1772454814223794200,8.098794189453125,-0.9782257080078125,-0.205230712890625,0.0228424072265625
1772454814233812200,8.108812255859375,-0.97918701171875,-0.202911376953125,0.0212249755859375
1772454814243830300,8.118830322265625,-0.9817047119140625,-0.203857421875,0.01953125
1772454814253848300,8.128848388671875,-0.9817657470703125,-0.2052154541015625,0.0227508544921875
1772454814263865300,8.138865234375,-0.977294921875,-0.2064361572265625,0.020721435546875
1772454814273883400,8.14888330078125,-0.9701995849609375,-0.2073974609375,0.0192108154296875
1772454814283901200,8.158901123046874,-0.963226318359375,-0.20806884765625,0.0172119140625
1772454814293919200,8.168919189453124,-0.962646484375,-0.211669921875,0.01922607421875
1772454814303937300,8.178937255859376,-0.9672393798828125,-0.212249755859375,0.0189971923828125
1772454814313955300,8.188955322265626,-0.9736328125,-0.213653564453125,0.0174407958984375
1772454814323972400,8.198972412109375,-0.9755706787109375,-0.21282958984375,0.01910400390625
1772454814333990400,8.208990478515625,-0.9775848388671875,-0.2110748291015625,0.0200958251953125
1772454814344008200,8.21900830078125,-0.979949951171875,-0.209869384765625,0.0199432373046875
1772454814354026200,8.229026123046875,-0.9798736572265625,-0.21112060546875,0.0168914794921875
1772454814364044300,8.239044189453125,-0.9774322509765625,-0.2106170654296875,0.0166168212890625
1772454814374062300,8.249062255859375,-0.97332763671875,-0.211090087890625,0.0165863037109375
1772454814384079000,8.2590791015625,-0.97100830078125,-0.2105865478515625,0.016387939453125
1772454814394097400,8.269097412109375,-0.971282958984375,-0.209808349609375,0.016632080078125
1772454814404115200,8.279115234375,-0.9688568115234375,-0.2114715576171875,0.0161895751953125
1772454814414133200,8.28913330078125,-0.9676971435546875,-0.21051025390625,0.019622802734375
1772454814424151300,8.2991513671875,-0.9694061279296875,-0.206787109375,0.0189056396484375
1772454814434169300,8.30916943359375,-0.971343994140625,-0.2047882080078125,0.0188446044921875
1772454814444186000,8.31918603515625,-0.9688568115234375,-0.208221435546875,0.0209197998046875
1772454814454204400,8.329204345703126,-0.970733642578125,-0.2089080810546875,0.0215301513671875
1772454814464222200,8.33922216796875,-0.9705810546875,-0.2092437744140625,0.0190582275390625
1772454814474240300,8.349240234375,-0.97119140625,-0.2065887451171875,0.021270751953125
1772454814484258000,8.359258056640625,-0.96771240234375,-0.206146240234375,0.018157958984375
1772454814494276400,8.3692763671875,-0.96746826171875,-0.20721435546875,0.0190887451171875
1772454814504293000,8.379293212890625,-0.9701995849609375,-0.208465576171875,0.0181884765625
1772454814514311400,8.3893115234375,-0.975616455078125,-0.2094573974609375,0.017303466796875
1772454814524329200,8.3993291015625,-0.9805145263671875,-0.20849609375,0.019134521484375
1772454814534347300,8.40934716796875,-0.98291015625,-0.208526611328125,0.0194854736328125
1772454814544365000,8.419364990234374,-0.9884796142578125,-0.2087860107421875,0.0192108154296875
1772454814554383400,8.42938330078125,-0.9893035888671875,-0.2109832763671875,0.0158843994140625
1772454814564400000,8.439400146484376,-0.9860992431640625,-0.20904541015625,0.01690673828125
1772454814574418400,8.44941845703125,-0.9842529296875,-0.2099151611328125,0.017242431640625
1772454814584436200,8.459436279296876,-0.9821929931640625,-0.2107086181640625,0.0157623291015625
1772454814594454300,8.469454345703125,-0.979461669921875,-0.211883544921875,0.0164642333984375
1772454814604472000,8.47947216796875,-0.9705810546875,-0.2110748291015625,0.0204620361328125
1772454814614490400,8.489490478515625,-0.965240478515625,-0.207794189453125,0.0210418701171875
1772454814624507100,8.499507080078125,-0.9665374755859375,-0.210540771484375,0.022918701171875
1772454814634525200,8.509525146484375,-0.9701080322265625,-0.21343994140625,0.0222930908203125
1772454814644543200,8.519543212890625,-0.972686767578125,-0.209716796875,0.026275634765625
1772454814654561300,8.529561279296875,-0.97747802734375,-0.209320068359375,0.0259246826171875
1772454814664579000,8.5395791015625,-0.9778900146484375,-0.207611083984375,0.0250244140625
1772454814674597400,8.549597412109375,-0.9764251708984375,-0.2058563232421875,0.021575927734375
1772454814684614100,8.5596142578125,-0.974609375,-0.2036590576171875,0.0200653076171875
1772454814694632200,8.569632080078126,-0.969879150390625,-0.203765869140625,0.0213623046875
1772454814704650200,8.579650146484376,-0.9637908935546875,-0.2040863037109375,0.022735595703125
1772454814714668300,8.589668212890626,-0.9581451416015625,-0.2037200927734375,0.0222320556640625
1772454814724686000,8.59968603515625,-0.9579620361328125,-0.2042083740234375,0.0270538330078125
1772454814734704400,8.609704345703125,-0.9591827392578125,-0.2033538818359375,0.026519775390625
1772454814744721200,8.61972119140625,-0.960693359375,-0.204559326171875,0.026153564453125
1772454814754739200,8.6297392578125,-0.9655303955078125,-0.2055206298828125,0.0242919921875
1772454814764757200,8.63975732421875,-0.9721221923828125,-0.2045440673828125,0.022918701171875
1772454814774775300,8.649775390625,-0.9788665771484375,-0.205108642578125,0.022918701171875
1772454814784793000,8.65979296875,-0.9791259765625,-0.2051544189453125,0.026336669921875
1772454814794811100,8.66981103515625,-0.978271484375,-0.2078704833984375,0.022125244140625
1772454814804829400,8.679829345703125,-0.9734039306640625,-0.212066650390625,0.0202178955078125
1772454814814846200,8.68984619140625,-0.9691314697265625,-0.2123870849609375,0.020721435546875
1772454814824864300,8.6998642578125,-0.971588134765625,-0.21368408203125,0.019775390625
1772454814834882300,8.70988232421875,-0.9745941162109375,-0.2128753662109375,0.020721435546875
1772454814844900000,8.719900146484376,-0.9769439697265625,-0.21307373046875,0.0205535888671875
1772454814854918100,8.729918212890626,-0.980194091796875,-0.210174560546875,0.022369384765625
1772454814864936400,8.7399365234375,-0.9834747314453125,-0.2086639404296875,0.0242767333984375
1772454814874953200,8.749953125,-0.9856414794921875,-0.207427978515625,0.0231781005859375
1772454814884971300,8.75997119140625,-0.985443115234375,-0.2076568603515625,0.0210113525390625
1772454814894989300,8.7699892578125,-0.9817047119140625,-0.2053375244140625,0.022430419921875
1772454814905007400,8.78000732421875,-0.9752197265625,-0.205047607421875,0.0237579345703125
1772454814915025200,8.790025146484375,-0.9701080322265625,-0.2054595947265625,0.02032470703125
1772454814925043500,8.80004345703125,-0.96429443359375,-0.206512451171875,0.019989013671875
1772454814935060200,8.810060302734374,-0.9608306884765625,-0.20428466796875,0.0210723876953125
1772454814945078000,8.820078125,-0.96331787109375,-0.2024383544921875,0.022125244140625
1772454814955096300,8.830096435546874,-0.968780517578125,-0.20379638671875,0.0191192626953125
1772454814965114400,8.8401142578125,-0.974365234375,-0.2028350830078125,0.0165252685546875
1772454814975132200,8.850132080078126,-0.9752197265625,-0.204345703125,0.0184783935546875
1772454814985150500,8.860150390625,-0.9775848388671875,-0.205322265625,0.0188751220703125
1772454814995167200,8.870167236328125,-0.9801025390625,-0.2044677734375,0.021514892578125
1772454815005184800,8.880184814453125,-0.9805450439453125,-0.2058563232421875,0.0215911865234375
1772454815015203000,8.890203125,-0.97930908203125,-0.2039337158203125,0.0252227783203125
1772454815025221000,8.90022119140625,-0.97991943359375,-0.203277587890625,0.0257110595703125
1772454815035239000,8.910239013671875,-0.97613525390625,-0.2095489501953125,0.0240631103515625
1772454815045256000,8.920255859375,-0.96856689453125,-0.21234130859375,0.0240936279296875
1772454815055274000,8.93027392578125,-0.967559814453125,-0.206695556640625,0.0262908935546875
1772454815065291800,8.940291748046874,-0.9694061279296875,-0.204071044921875,0.02703857421875
1772454815075310000,8.95031005859375,-0.971343994140625,-0.2082366943359375,0.025909423828125
1772454815085328100,8.960328125,-0.976043701171875,-0.2064361572265625,0.0276641845703125
1772454815095346000,8.970345947265624,-0.97662353515625,-0.20452880859375,0.0289764404296875
1772454815105363000,8.980363037109376,-0.975250244140625,-0.2055816650390625,0.0260772705078125
1772454815115381000,8.990381103515626,-0.972900390625,-0.20562744140625,0.0289154052734375
1772454815125399000,9.00039892578125,-0.970184326171875,-0.2032470703125,0.02972412109375
1772454815135417000,9.0104169921875,-0.96905517578125,-0.2046661376953125,0.0319976806640625
1772454815145435100,9.02043505859375,-0.9709625244140625,-0.204620361328125,0.027801513671875
1772454815155453000,9.030452880859375,-0.9760284423828125,-0.2003021240234375,0.0222625732421875
1772454815165470000,9.040469970703125,-0.982513427734375,-0.200653076171875,0.0188140869140625
1772454815175488000,9.050488037109375,-0.9863739013671875,-0.2003021240234375,0.0215606689453125
1772454815185506000,9.060506103515625,-0.9866485595703125,-0.2018890380859375,0.02288818359375
1772454815195524000,9.070524169921875,-0.9846649169921875,-0.2015380859375,0.0225677490234375
1772454815205542100,9.080542236328125,-0.982879638671875,-0.2038726806640625,0.019866943359375
1772454815215560000,9.090559814453124,-0.97772216796875,-0.203399658203125,0.017822265625
1772454815225578000,9.100577880859374,-0.9723052978515625,-0.204376220703125,0.0171966552734375
1772454815235595000,9.110594970703126,-0.96905517578125,-0.204742431640625,0.0194244384765625
1772454815245613000,9.120613037109376,-0.9709014892578125,-0.204437255859375,0.019775390625
1772454815255630800,9.130630859375,-0.971343994140625,-0.206329345703125,0.0177459716796875
1772454815265649200,9.140649169921875,-0.969970703125,-0.2040863037109375,0.021209716796875
1772454815275667000,9.1506669921875,-0.9722442626953125,-0.20208740234375,0.0216064453125
1772454815285684200,9.160684326171875,-0.97625732421875,-0.2037811279296875,0.0175018310546875
1772454815295702000,9.170701904296875,-0.9789581298828125,-0.202911376953125,0.0119171142578125
1772454815305720000,9.180719970703125,-0.980712890625,-0.202850341796875,0.0090484619140625
1772454815315737900,9.19073779296875,-0.981536865234375,-0.2010040283203125,0.0142822265625
1772454815325756200,9.200756103515625,-0.98419189453125,-0.20062255859375,0.0251617431640625
1772454815335774000,9.21077392578125,-0.98236083984375,-0.2001190185546875,0.0264129638671875
1772454815345791000,9.220791015625,-0.9728240966796875,-0.1993408203125,0.02716064453125
1772454815355809000,9.23080908203125,-0.965362548828125,-0.2030792236328125,0.0266876220703125
1772454815365827000,9.2408271484375,-0.96337890625,-0.2035064697265625,0.0270538330078125
1772454815375844900,9.250844970703126,-0.96331787109375,-0.20428466796875,0.024505615234375
1772454815385863200,9.26086328125,-0.9638824462890625,-0.20404052734375,0.0221405029296875
1772454815395881000,9.270880859375,-0.96929931640625,-0.2041473388671875,0.0203704833984375
1772454815405898000,9.28089794921875,-0.97222900390625,-0.203765869140625,0.0204620361328125
1772454815415916000,9.290916015625,-0.976654052734375,-0.2029571533203125,0.02294921875
1772454815425934000,9.30093408203125,-0.98040771484375,-0.202423095703125,0.025665283203125
1772454815435951900,9.310951904296875,-0.980499267578125,-0.2032012939453125,0.0275726318359375
1772454815445970200,9.32097021484375,-0.98486328125,-0.203887939453125,0.026702880859375
1772454815455988000,9.330988037109375,-0.9855499267578125,-0.2030487060546875,0.0256805419921875
1772454815466006000,9.341006103515625,-0.9837188720703125,-0.2038726806640625,0.02734375
1772454815476023000,9.35102294921875,-0.98095703125,-0.2047271728515625,0.0250396728515625
1772454815486041000,9.361041015625,-0.98138427734375,-0.206939697265625,0.02294921875
1772454815496059000,9.371058837890626,-0.9805450439453125,-0.204132080078125,0.01947021484375
1772454815506077000,9.381076904296876,-0.976409912109375,-0.2024078369140625,0.0181732177734375
1772454815516095000,9.391094970703126,-0.974029541015625,-0.2032318115234375,0.020843505859375
1772454815526113000,9.401113037109376,-0.9716339111328125,-0.2040557861328125,0.0198211669921875
1772454815536130000,9.411130126953125,-0.972686767578125,-0.2032318115234375,0.02001953125
1772454815546148000,9.421148193359375,-0.973419189453125,-0.20281982421875,0.0184783935546875
1772454815556166000,9.431165771484375,-0.9718170166015625,-0.2028045654296875,0.0209197998046875
1772454815566184000,9.441183837890625,-0.9709320068359375,-0.2024688720703125,0.0238189697265625
1772454815576202000,9.451201904296875,-0.971435546875,-0.2014312744140625,0.026031494140625
1772454815586219000,9.461218994140625,-0.9730224609375,-0.2006072998046875,0.025146484375
1772454815596237000,9.471237060546875,-0.9746856689453125,-0.201324462890625,0.0250396728515625
1772454815606255000,9.481255126953124,-0.97161865234375,-0.203521728515625,0.0229034423828125
1772454815616273000,9.49127294921875,-0.9715118408203125,-0.2034912109375,0.0201873779296875
1772454815626291000,9.501291015625,-0.9708251953125,-0.203277587890625,0.018707275390625
1772454815636309000,9.51130908203125,-0.97216796875,-0.203643798828125,0.01934814453125
1772454815646327000,9.5213271484375,-0.9734039306640625,-0.20489501953125,0.0243072509765625
1772454815656344000,9.531343994140625,-0.9732666015625,-0.205810546875,0.02886962890625
1772454815666362000,9.541362060546875,-0.978607177734375,-0.2050933837890625,0.0253753662109375
1772454815676380000,9.5513798828125,-0.981658935546875,-0.205810546875,0.027252197265625
1772454815686398000,9.56139794921875,-0.97894287109375,-0.2068023681640625,0.027862548828125
1772454815696416000,9.571416015625,-0.97430419921875,-0.20733642578125,0.027069091796875
1772454815706433000,9.58143310546875,-0.970550537109375,-0.2054443359375,0.02691650390625
1772454815716450800,9.591450927734375,-0.971282958984375,-0.2071685791015625,0.0279388427734375
1772454815726469000,9.60146923828125,-0.972625732421875,-0.206024169921875,0.02630615234375
1772454815736487000,9.61148681640625,-0.973480224609375,-0.2067413330078125,0.02703857421875
1772454815746505000,9.6215048828125,-0.97662353515625,-0.207672119140625,0.02642822265625
1772454815756523000,9.63152294921875,-0.976776123046875,-0.20684814453125,0.0247039794921875
1772454815766540000,9.6415400390625,-0.9791717529296875,-0.2077484130859375,0.022552490234375
1772454815776557800,9.651557861328126,-0.9742584228515625,-0.2067108154296875,0.020965576171875
1772454815786576100,9.661576171875,-0.96990966796875,-0.2044830322265625,0.0230712890625
1772454815796594000,9.671593994140625,-0.96893310546875,-0.2042083740234375,0.0222625732421875
1772454815806612000,9.681612060546875,-0.9700164794921875,-0.2061004638671875,0.023712158203125
1772454815816629800,9.691629638671875,-0.9689483642578125,-0.206939697265625,0.0210723876953125
1772454815826647000,9.70164697265625,-0.968780517578125,-0.2071075439453125,0.020904541015625
1772454815836664800,9.711664794921875,-0.9702606201171875,-0.2052001953125,0.019378662109375
1772454815846683100,9.72168310546875,-0.9702606201171875,-0.20416259765625,0.0175323486328125
1772454815856701000,9.731700927734375,-0.9705047607421875,-0.2001190185546875,0.0198211669921875
1772454815866719000,9.741718994140625,-0.9732818603515625,-0.2006072998046875,0.0218505859375
1772454815876736800,9.75173681640625,-0.9739227294921875,-0.200164794921875,0.017242431640625
1772454815886754000,9.761754150390624,-0.972747802734375,-0.2033538818359375,0.018402099609375
1772454815896771800,9.771771728515626,-0.9653167724609375,-0.20281982421875,0.02142333984375
1772454815906790100,9.7817900390625,-0.9583740234375,-0.203521728515625,0.0217742919921875
1772454815916808000,9.791807861328126,-0.95654296875,-0.2057952880859375,0.0190582275390625
1772454815926826000,9.801825927734376,-0.9571533203125,-0.204803466796875,0.0180511474609375
1772454815936844000,9.811843994140625,-0.9573822021484375,-0.204315185546875,0.021148681640625
1772454815946861000,9.821861083984375,-0.963623046875,-0.2052764892578125,0.02545166015625
1772454815956878800,9.83187890625,-0.980133056640625,-0.2041015625,0.01904296875
1772454815966897000,9.84189697265625,-0.993377685546875,-0.202789306640625,0.0183258056640625
1772454815976915000,9.8519150390625,-1.00140380859375,-0.201995849609375,0.0216064453125
1772454815986933000,9.86193310546875,-1.0058441162109375,-0.198516845703125,0.02093505859375
1772454815996950500,9.871950439453125,-1.002532958984375,-0.19940185546875,0.0186309814453125
1772454816006967600,9.881967529296874,-0.9947052001953125,-0.19964599609375,0.017303466796875
1772454816016985600,9.891985595703124,-0.986419677734375,-0.198822021484375,0.017181396484375
1772454816027003600,9.902003662109376,-0.981048583984375,-0.1989593505859375,0.022247314453125
1772454816037021700,9.912021728515626,-0.9805450439453125,-0.2004241943359375,0.02227783203125
1772454816047039500,9.92203955078125,-0.980438232421875,-0.20050048828125,0.020843505859375
1772454816057057500,9.9320576171875,-0.97705078125,-0.198974609375,0.0270538330078125
1772454816067074600,9.942074462890625,-0.973907470703125,-0.1975250244140625,0.0302734375
1772454816077092600,9.952092529296875,-0.972442626953125,-0.1996612548828125,0.025787353515625
1772454816087110400,9.9621103515625,-0.9724884033203125,-0.2008209228515625,0.019561767578125
1772454816097128700,9.972128662109375,-0.969818115234375,-0.2014312744140625,0.01904296875
1772454816107146500,9.982146484375,-0.96807861328125,-0.2027587890625,0.0182952880859375
1772454816117164500,9.99216455078125,-0.9669189453125,-0.202392578125,0.015380859375
1772454816127181600,10.002181640625,-0.962615966796875,-0.2028045654296875,0.0120391845703125
1772454816137199600,10.01219970703125,-0.9594573974609375,-0.2054290771484375,0.0117034912109375
1772454816147217400,10.022217529296874,-0.961669921875,-0.203338623046875,0.0122528076171875
1772454816157235700,10.032235595703124,-0.965606689453125,-0.201507568359375,0.0102081298828125
1772454816167253800,10.042253662109376,-0.9750518798828125,-0.2022552490234375,0.010986328125
1772454816177271600,10.052271484375,-0.9812164306640625,-0.203643798828125,0.0119171142578125
1772454816187288600,10.06228857421875,-0.984130859375,-0.2030487060546875,0.0139007568359375
1772454816197306600,10.072306640625,-0.9842681884765625,-0.2029571533203125,0.017059326171875
1772454816207324400,10.082324462890625,-0.9826507568359375,-0.2035064697265625,0.0231170654296875
1772454816217342700,10.0923427734375,-0.9834136962890625,-0.202056884765625,0.019073486328125
1772454816227360800,10.10236083984375,-0.9831390380859375,-0.200775146484375,0.0171356201171875
1772454816237378600,10.112378662109375,-0.9851531982421875,-0.200469970703125,0.0199432373046875
1772454816247395600,10.1223955078125,-0.9841156005859375,-0.2007293701171875,0.0211944580078125
1772454816257413600,10.13241357421875,-0.983184814453125,-0.2023773193359375,0.020263671875
1772454816267431700,10.142431640625,-0.9815826416015625,-0.2003326416015625,0.0218658447265625
1772454816277449700,10.15244970703125,-0.977691650390625,-0.197265625,0.0264434814453125
1772454816287467800,10.1624677734375,-0.9752655029296875,-0.1974945068359375,0.0289764404296875
1772454816297485600,10.172485595703124,-0.97381591796875,-0.1991119384765625,0.02459716796875
1772454816307502600,10.182502685546876,-0.973480224609375,-0.20068359375,0.0215606689453125
1772454816317520600,10.192520751953126,-0.970001220703125,-0.1995391845703125,0.0206756591796875
1772454816327538700,10.20253857421875,-0.9669036865234375,-0.1999359130859375,0.0219268798828125
1772454816337556500,10.212556396484375,-0.961517333984375,-0.20135498046875,0.0203857421875
1772454816347574800,10.22257470703125,-0.9598846435546875,-0.2020111083984375,0.0203857421875
1772454816357592600,10.232592529296875,-0.9617156982421875,-0.203521728515625,0.02203369140625
1772454816367609600,10.242609619140625,-0.967132568359375,-0.202850341796875,0.0199432373046875
1772454816377627600,10.252627685546875,-0.9697723388671875,-0.201934814453125,0.0140380859375
1772454816387645700,10.262645751953125,-0.974365234375,-0.2012939453125,0.011383056640625
1772454816397663500,10.27266357421875,-0.9770355224609375,-0.2016754150390625,0.013214111328125
1772454816407681800,10.282681884765625,-0.9768829345703125,-0.2016143798828125,0.0128173828125
1772454816417699600,10.292699462890624,-0.976806640625,-0.2028656005859375,0.0169525146484375
1772454816427716600,10.302716552734376,-0.9750823974609375,-0.2038726806640625,0.0131378173828125
1772454816437734700,10.312734619140626,-0.9757537841796875,-0.20281982421875,0.011383056640625
1772454816447752700,10.322752685546876,-0.9832916259765625,-0.201446533203125,0.0157470703125
1772454816457770500,10.3327705078125,-0.989959716796875,-0.20257568359375,0.0159759521484375
1772454816467788800,10.342788818359375,-0.9905242919921875,-0.200775146484375,0.016693115234375
1772454816477806600,10.352806640625,-0.9874725341796875,-0.1990966796875,0.0184326171875
1772454816487823600,10.36282373046875,-0.9848480224609375,-0.198455810546875,0.0172119140625
1772454816497841700,10.372841552734375,-0.980072021484375,-0.2001953125,0.0191497802734375
1772454816507859700,10.382859619140625,-0.9747161865234375,-0.2009735107421875,0.0205841064453125
1772454816517877500,10.39287744140625,-0.970672607421875,-0.2005767822265625,0.019134521484375
1772454816527895800,10.402895751953125,-0.968597412109375,-0.201446533203125,0.0181884765625
1772454816537913600,10.41291357421875,-0.9679107666015625,-0.2010955810546875,0.015777587890625
1772454816547930600,10.4229306640625,-0.96246337890625,-0.19989013671875,0.0190277099609375
1772454816557948700,10.43294873046875,-0.9593505859375,-0.2001800537109375,0.0202789306640625
1772454816567966700,10.442966796875,-0.96002197265625,-0.201263427734375,0.01824951171875
1772454816577984500,10.452984619140626,-0.963623046875,-0.2031097412109375,0.0140838623046875
1772454816588002600,10.46300244140625,-0.970977783203125,-0.202392578125,0.0137786865234375
1772454816598020600,10.4730205078125,-0.9747314453125,-0.203948974609375,0.0146942138671875
1772454816608037600,10.48303759765625,-0.9806365966796875,-0.205322265625,0.015045166015625
1772454816618055700,10.4930556640625,-0.9836883544921875,-0.2054595947265625,0.0157928466796875
1772454816628073700,10.50307373046875,-0.98248291015625,-0.203338623046875,0.018157958984375
1772454816638091500,10.513091552734375,-0.983489990234375,-0.20330810546875,0.0187530517578125
1772454816648109600,10.523109619140625,-0.981658935546875,-0.2042694091796875,0.01776123046875
1772454816658127600,10.533127685546875,-0.98065185546875,-0.203704833984375,0.01544189453125
1772454816668144600,10.54314453125,-0.9832916259765625,-0.2013092041015625,0.0141448974609375
1772454816678162700,10.55316259765625,-0.9883270263671875,-0.20068359375,0.0158843994140625
1772454816688180700,10.5631806640625,-0.98876953125,-0.200836181640625,0.0173797607421875
1772454816698198500,10.573198486328126,-0.983367919921875,-0.2032928466796875,0.018157958984375
1772454816708216600,10.583216552734376,-0.977020263671875,-0.204132080078125,0.0189971923828125
1772454816718234600,10.593234619140626,-0.9712066650390625,-0.2053070068359375,0.0193023681640625
1772454816728251600,10.603251708984375,-0.9700775146484375,-0.201263427734375,0.016021728515625
1772454816738269400,10.61326953125,-0.970458984375,-0.198760986328125,0.017730712890625
1772454816748287700,10.623287841796875,-0.972625732421875,-0.196380615234375,0.0253753662109375
1772454816758305500,10.633305419921875,-0.972900390625,-0.19775390625,0.0215911865234375
1772454816768323600,10.643323486328125,-0.9708099365234375,-0.198333740234375,0.011383056640625
1772454816778340600,10.653340576171875,-0.9694061279296875,-0.1955718994140625,0.0151824951171875
1772454816788358700,10.663358642578125,-0.969573974609375,-0.19561767578125,0.02337646484375
1772454816798376400,10.67337646484375,-0.96282958984375,-0.1996307373046875,0.0182647705078125
1772454816808394800,10.683394775390624,-0.964080810546875,-0.203094482421875,0.011810302734375
1772454816818412500,10.69341259765625,-0.973846435546875,-0.1966552734375,0.0207061767578125
1772454816828430600,10.7034306640625,-0.985443115234375,-0.18316650390625,0.043975830078125
1772454816838447600,10.713447509765626,-0.99310302734375,-0.19732666015625,0.02740478515625
1772454816848465700,10.723465576171876,-0.9841766357421875,-0.2086944580078125,0.0007781982421875
1772454816858483500,10.7334833984375,-0.9684906005859375,-0.2060546875,0.005645751953125
1772454816868501800,10.743501708984375,-0.9613189697265625,-0.2028350830078125,0.020233154296875
1772454816878519600,10.75351953125,-0.963165283203125,-0.2107696533203125,0.0197601318359375
1772454816888537600,10.76353759765625,-0.9705657958984375,-0.214508056640625,0.0118560791015625
1772454816898554600,10.7735546875,-0.983642578125,-0.21124267578125,0.0131988525390625
1772454816908572700,10.78357275390625,-0.9980010986328125,-0.1927337646484375,0.0133514404296875
