time,seconds_elapsed,z,y,x
1772454806204509700,0.079509765625,-0.07556874346435069,0.020028496419638393,0.004905234633013606
1772454806214527500,0.089527587890625,0.03512625843882561,-0.0363441097959876,0.04087187115242705
1772454806224545800,0.0995458984375,0.11803425875008106,-0.061587418254464864,0.10202093452224507
1772454806234563600,0.1095634765625,0.1787169832497835,-0.032773996224254365,0.10606547893900424
1772454806244580600,0.11958056640625,0.18447393934130668,-0.039995618040859694,0.04663909290963784
1772454806254598700,0.1295986328125,0.10602934817969799,-0.05571501908972859,0.030832890360150484
1772454806264616700,0.13961669921875,0.04837327802479267,-0.06160086225792765,0.0452987842165865
1772454806274634500,0.149634521484375,0.0399585009008646,-0.03558291616514325,0.03610242826091126
1772454806284652800,0.15965283203125,0.02744973246157169,-0.024066081372648478,0.04865631448356435
1772454806294670600,0.169670654296875,0.04088029192090034,-0.031119945406913756,0.03804643846815452
1772454806304688600,0.179688720703125,0.052311201995611185,-0.0328477921128273,0.026374449646566062
1772454806314705700,0.18970556640625,0.07247194649279118,-0.02756663683950901,0.025127627923246472
1772454806324723700,0.1997236328125,0.042619244542717934,-0.0037165363050997253,0.03777525684395805
1772454806334741500,0.209741455078125,0.03953472253084182,0.00032528643161058423,0.06288134878883138
1772454806344759800,0.219759765625,0.05756780734956264,0.027708675658702848,0.0644915969970636
1772454806354777600,0.229777587890625,0.09040273998081684,0.03252908155247569,0.023580672475881873
1772454806364795600,0.239795654296875,0.09015373365581035,0.023553017283976078,-0.00712340387282893
1772454806374813400,0.2498134765625,0.0714817664116621,0.002989537204802036,0.022885548084881156
1772454806384830700,0.259830810546875,0.05633095903098583,0.016935206579416988,0.04289870080491528
1772454806394848500,0.2698486328125,0.021802081963419914,0.01206073241084814,-0.014539634946081787
1772454806404866800,0.27986669921875,-0.011059738674759864,0.0053555356837809084,-0.0796568347618915
1772454806414884600,0.289884521484375,-0.08832125753164291,-0.0013265724286437035,-0.0594537306940183
1772454806424902700,0.299902587890625,-0.12234627673029899,0.01625803797021508,-0.03474188049742952
1772454806434920400,0.30992041015625,-0.07551613649427891,0.006742606128007173,-0.049730720515735446
1772454806444938800,0.319938720703125,0.014551087921857834,0.012862696443498134,-0.05824788030190393
1772454806454955500,0.32995556640625,-0.0178898769557476,-0.05854512794911861,-0.01390122744468972
1772454806464973600,0.3399736328125,0.015388123267889022,-0.07035758468732238,0.021469543807115403
1772454806474991600,0.34999169921875,0.06621522418558597,-0.03494388760924339,0.04462097628656775
1772454806485009700,0.360009765625,0.10092764112651348,-0.021631986093521117,0.022932857825327665
1772454806495027500,0.37002734375,0.15361469069719313,-0.03732318396121263,-0.0365189549062401
1772454806505045800,0.380045654296875,0.12348667893707752,-0.05706000395789742,-0.0020584303671494124
1772454806515063600,0.3900634765625,0.07716215013563632,-0.046127837185561654,0.03824923103125766
1772454806525080600,0.40008056640625,0.03690612759292126,-0.00032908582389354704,0.04660942842373624
1772454806535098600,0.4100986328125,0.01271685823202133,0.03691226507276296,0.00842118859840557
1772454806545116700,0.42011669921875,0.012130582776665687,0.04829816696196794,0.06213065828569233
1772454806555134500,0.430134521484375,-0.043512393990159035,0.06577507920265198,0.1270875529732555
1772454806565152800,0.44015283203125,-0.07035889986157418,0.06867094677463173,0.08671815145025029
1772454806575170600,0.450170654296875,-0.06619944209456444,0.052393619582056995,0.07678573630498722
1772454806585188600,0.460188720703125,-0.023922142857313155,0.026576164497435092,0.08254070136882365
1772454806595205600,0.47020556640625,0.020621932268142698,0.015986965943872927,0.05006121284542605
1772454806605223700,0.4802236328125,0.058041270080208776,0.016636369763314722,-0.08290442011468112
1772454806615241500,0.490241455078125,0.11995675124526023,-0.02885243886634707,-0.02600831974791363
1772454806625259500,0.500259521484375,0.1277577803850174,-0.0720334089450538,0.04889642511606216
1772454806635277600,0.510277587890625,0.1328852064013481,-0.013105711419135331,0.06292686843099073
1772454806645295600,0.520295654296875,0.11939853284060954,0.007982815447449684,0.06289232684057205
1772454806655313700,0.530313720703125,0.04514028745293617,0.007721826423704624,0.039597028911020606
1772454806665330700,0.54033056640625,-0.01885784520506859,0.012345394571125507,0.050599100848101076
1772454806675348500,0.550348388671875,-0.057200727602839466,0.01597483711466193,0.04295043099215254
1772454806685366500,0.560366455078125,-0.023946108254790304,0.00009483867660164833,0.029840719251334667
1772454806695384600,0.570384521484375,0.05465162764191627,-0.009149521139264106,0.008695128435268998
1772454806705402600,0.580402587890625,0.11320493889749049,-0.024765023422241208,0.009760510910768062
1772454806715420700,0.590420654296875,0.11195230848789214,-0.029234570051729677,0.046576841328386215
1772454806725438700,0.600438720703125,0.1277437518596649,-0.00018456278666853903,0.09550112256575376
1772454806735455500,0.61045556640625,0.17221768435835838,0.0018473814323544501,0.08657253243448212
1772454806745473500,0.6204736328125,0.19115911619365214,-0.020108137527108192,0.05325019987877458
1772454806755491800,0.630491943359375,0.1818850918918848,-0.02687792392298579,0.0030943858187645673
1772454806765509600,0.640509521484375,0.14341419920027254,-0.007622603832930326,-0.026979338470846412
1772454806775527700,0.650527587890625,0.10386486362218857,-0.015670739601552484,-0.03014171149190515
1772454806785545500,0.66054541015625,0.015693828216195107,-0.02897460394129157,0.036982900889869774
1772454806795563800,0.670563720703125,-0.038627544558048246,-0.03458601408228278,0.10545763097265734
1772454806805580500,0.68058056640625,-0.037597032466530796,-0.02248874905332923,0.07866557696852833
1772454806815598800,0.690598876953125,0.0324643457531929,-0.019743103606998918,0.007544606693275273
1772454806825616600,0.70061669921875,0.07470715819895267,-0.03474982634186744,0.022412304549943654
1772454806835634700,0.710634765625,0.12693594260811805,0.045212768167257306,-0.011209358012210577
1772454806845652500,0.720652587890625,0.12389759782552719,0.057728989260643716,-0.0244382026206702
1772454806855670800,0.7306708984375,0.1244546471863985,0.02902808769419789,0.031481453929375854
1772454806865687600,0.7406875,0.17680384310483932,0.0035194062978029248,0.01613488651458174
1772454806875705600,0.75070556640625,0.24135025729537007,-0.015135755942016839,0.005692969210911542
1772454806885723600,0.7607236328125,0.21307108827233312,0.025395868671685456,-0.02116990327341482
1772454806895741700,0.77074169921875,0.15066402419805525,0.05630450941547751,-0.05225550801930949
1772454806905759500,0.780759521484375,0.027392449316382406,0.06488967467024923,-0.060045668705180286
1772454806915777800,0.79077783203125,-0.031389409998059274,0.070033759560436,0.011819379669334738
1772454806925795600,0.800795654296875,-0.03389174820780754,0.14356938976198433,0.11177233054479584
1772454806935812600,0.8108125,0.002115384718775749,0.23913053541928528,0.29330035262731835
1772454806945830700,0.82083056640625,-0.00024549919366836546,0.3385882501237094,0.42667390880119055
1772454806955848700,0.8308486328125,0.0403068759471178,0.16986059983819723,0.25566947269011286
1772454806965866500,0.840866455078125,0.03931728038787841,-0.08886340158432722,-0.14734456091914325
1772454806975884800,0.850884765625,-0.06660977646112441,-0.06759761845469474,-0.23997370824515818
1772454806985902600,0.860902587890625,-0.2303571541160345,-0.012518705311417579,-0.09421020597238093
1772454806995920600,0.870920654296875,-0.34471009400486946,-0.021701105806976557,0.04710661908984184
1772454807005938000,0.88093798828125,-0.4030734356462955,0.02454056701660156,0.1408065374525264
1772454807015955700,0.890955810546875,-0.44090135425925253,0.06818608586713672,0.17426457041818647
1772454807025973800,0.900973876953125,-0.3763865042507648,0.12467355063408612,0.2036298176448792
1772454807035991600,0.910991455078125,-0.2183352924108505,0.14588906488120554,0.2585691761869937
1772454807046009900,0.921009765625,-0.049584991902112956,0.11886603339910506,0.2729986104905605
1772454807056027600,0.931027587890625,0.07247779171168804,0.05708674583435058,0.16427282630112022
1772454807066045700,0.941045654296875,0.1394505562663078,0.010566256069391966,0.001118994092568755
1772454807076062700,0.951062744140625,0.24098083946108817,-0.012599661593139171,-0.03976286873091012
1772454807086080800,0.961080810546875,0.27321020741462704,0.022412322816252706,-0.043847069304622704
1772454807096098600,0.9710986328125,0.2915028199523687,0.10478957725167273,0.0032547274796292185
1772454807106116900,0.981116943359375,0.2556026545315981,0.11195508496686815,0.11485098907146603
1772454807116134700,0.991134765625,0.14178338312804697,0.0844394476622343,0.10045881803836673
1772454807126152700,1.001152587890625,-0.008518822020292282,0.01823576778396964,0.033759353999793525
1772454807136170800,1.011170654296875,-0.10052841267585753,-0.0055642099983990185,-0.03669701488688588
1772454807146187800,1.021187744140625,-0.1398211431443691,-0.01764715424105525,-0.05221347724217921
1772454807156205600,1.03120556640625,-0.10926292327344417,-0.02882657377272844,-0.01894745971728116
1772454807166224000,1.041223876953125,-0.019072364738583564,-0.013476444427669048,0.04006594333071262
1772454807176241700,1.05124169921875,0.07739595889151096,-0.0035812194876372813,0.06716642396319657
1772454807186259700,1.061259765625,0.15075170248150824,-0.02725406375899911,0.037769722152315076
1772454807196277800,1.07127783203125,0.21437164947688578,-0.029527269387990236,-0.007708218023460358
1772454807206295800,1.0812958984375,0.1921107178300619,-0.048312049356848,0.0004086173335090279
1772454807216312600,1.0913125,0.1299836397409439,-0.03756561441496015,-0.048097840350586916
1772454807226331000,1.101330810546875,0.11036123990416526,-0.036377135282754894,-0.1037480505757965
1772454807236348700,1.1113486328125,0.1706049884647131,-0.05311214311495423,-0.11818957717595621
1772454807246366700,1.12136669921875,0.2316167987883091,-0.030759149270504712,-0.0990787618568167
1772454807256384800,1.131384765625,0.3084083620458841,-0.024048253455013036,-0.0613679120185785
1772454807266402800,1.14140283203125,0.33591771574020385,0.009389321244508027,0.019321900786552576
1772454807276419600,1.151419677734375,0.31155776598751544,0.008385989420861006,0.0404307397888042
1772454807286437600,1.161437744140625,0.22175474546551704,0.0139534142896533,0.02594955703169107
1772454807296456000,1.1714560546875,0.0668061758160591,0.04384104142263531,0.03171518962001428
1772454807306473700,1.1814736328125,-0.08482523210942745,0.029531068780273197,0.0478763065543957
1772454807316491800,1.19149169921875,-0.21887480611503124,-0.007860650372505187,0.00875043881908059
1772454807326509800,1.201509765625,-0.28308921187222,0.01731163867637515,0.03372868486689404
1772454807336528000,1.21152783203125,-0.2508528296560049,0.04029021707326173,0.04429386322405189
1772454807346544600,1.221544677734375,-0.148592478621006,0.017352409078180787,0.08809057231461628
1772454807356563000,1.23156298828125,-0.013964227944612502,-0.009567015898972749,0.0811892684935592
1772454807366580700,1.241580810546875,0.03592471534013748,-0.02146992739960551,0.09867600800851359
1772454807376598800,1.251598876953125,0.005689736074209213,-0.014597265151143074,0.07296073465673253
1772454807386616800,1.261616943359375,-0.0655564680159092,-0.023201135106384753,0.042622587277274575
1772454807396635000,1.271634765625,-0.11088087986409663,-0.00803936794027686,0.043007860267814245
1772454807406652700,1.281652587890625,-0.07637070749700069,0.026554244926571845,0.08917763689896091
1772454807416670000,1.291669921875,-0.025551789885759353,0.04413622497692704,0.1081282932203263
1772454807426687700,1.301687744140625,0.08389759587049483,0.0021289748527109622,0.07622430302994325
1772454807436705800,1.311705810546875,0.1586222897261381,-0.013013795351982115,0.031971100609842686
1772454807446723600,1.3217236328125,0.17729484149217606,0.007938684044778347,-0.010366806240845471
1772454807456742000,1.331741943359375,0.10744798280596732,0.005338876809924841,-0.03732289170026779
1772454807466759700,1.341759765625,0.0486725532323122,-0.02130114670395851,-0.0416397867850028
1772454807476777700,1.35177783203125,0.036951135778427124,-0.022956366565078497,-0.014087817791663109
1772454807486794800,1.361794677734375,0.036492286095023155,-0.024723668498545882,-0.035538729963544756
1772454807496812800,1.371812744140625,0.061821957662701606,-0.00847337544336915,-0.04203148951632902
1772454807506830600,1.38183056640625,0.05532090520560741,0.0010598843164741991,-0.030157383985072374
1772454807516849000,1.391848876953125,0.035383448070287704,0.003206833217293024,-0.03909737229319289
1772454807526866700,1.40186669921875,0.021461305701732634,0.0061550154983997345,-0.03660327218882739
1772454807536884700,1.411884765625,-0.012809212690591812,0.04307648679092526,-0.012304222310520708
1772454807546901800,1.42190185546875,-0.03784486974775791,0.047374914637207985,0.006768471221625804
1772454807556919800,1.431919921875,-0.054368719047307966,0.014520546653121708,-0.007827533554192632
1772454807566937600,1.4419375,-0.01876315265893936,0.009619330608099698,-0.03463266623560339
1772454807576956000,1.451955810546875,0.041992052555084224,0.012797083861380815,0.01355153722418472
1772454807586973700,1.4619736328125,0.0823000975459814,0.015681114865094423,0.024742464530561118
1772454807596991700,1.47199169921875,0.10137713845968246,0.02825578814744949,0.014179843456670642
1772454807607009500,1.482009521484375,0.08775894747376442,0.02973112139701843,0.0352423590991646
1772454807617026800,1.49202685546875,0.08930150074064731,0.040197131962329144,0.09230280144847929
1772454807627044600,1.502044677734375,0.10865502050817012,0.049702919193357224,0.08709573432467878
1772454807637063000,1.51206298828125,0.10928104345202445,0.024677491269260644,0.05215493372166529
1772454807647080700,1.522080810546875,0.05694412249326706,0.026677871306240556,0.06518600900201127
1772454807657098800,1.5320986328125,-0.030298692151904106,0.026333295652270317,0.04234515857538208
1772454807667116500,1.542116455078125,-0.06456219628155231,0.031227351304143666,0.0167405059912242
1772454807677134800,1.552134765625,-0.09648118311166763,0.01655526735112071,0.0297751249355264
1772454807687151600,1.562151611328125,-0.06201134275496006,0.05133125104755163,0.06320528351357206
1772454807697169700,1.572169677734375,-0.009540566283464431,0.0503947008498013,0.055597658054064955
1772454807707187700,1.582187744140625,0.03801262753009796,0.02266191366314888,0.05763586761709302
1772454807717205800,1.592205810546875,0.02700140417218208,-0.022105156563222407,0.024929237540625034
1772454807727223600,1.6022236328125,-0.06076105043292045,0.007775017915666103,0.0014557334999553858
1772454807737241900,1.612241943359375,-0.10407003080546855,0.011894582063704728,-0.010084573499672114
1772454807747260000,1.622260009765625,-0.09140461049973964,0.01436433317810297,0.05071156651293859
1772454807757276700,1.632276611328125,-0.04166413577497005,0.031671003418415784,0.05671038680262863
1772454807767294700,1.642294677734375,0.023403671941161153,0.031159692895412445,0.048340782260987904
1772454807777312800,1.652312744140625,0.06177344234585762,0.05723009982779622,0.05050904794447124
1772454807787330600,1.66233056640625,0.10743220071494579,0.07001476259902119,0.05123664983296766
1772454807797348900,1.672348876953125,0.13119360005259514,0.049900779853016136,-0.007064622890297323
1772454807807367000,1.682366943359375,0.12510112839639187,0.035909371640533205,-0.05165865637101233
1772454807817383700,1.6923837890625,0.10022679938077926,0.049573739855736494,-0.044188978077471255
1772454807827401700,1.702401611328125,0.09428338080644608,0.0571536735907197,0.002776917367428541
1772454807837419800,1.712419677734375,0.04547404945194721,0.06578033989965916,0.02729107130113989
1772454807847437800,1.722437744140625,0.012717442753911018,0.08540785430297256,0.041052671079430725
1772454807857455600,1.73245556640625,0.01640285326838493,0.08626447113230824,0.0575394763042219
1772454807867474000,1.742473876953125,0.005928805527091026,0.08413988019376993,0.0768831870637834
1772454807877491700,1.75249169921875,-0.0035509704798460003,0.08605842716619372,0.0413468682530336
1772454807887508700,1.7625087890625,-0.001875146222114563,0.0491235118702054,-0.017478501409571617
1772454807897526800,1.77252685546875,0.016448445975780487,0.04672244207784533,0.031011881922557948
1772454807907544800,1.782544921875,0.048588966602087016,0.03790156837105751,0.06215418529175221
1772454807917562600,1.792562744140625,0.0293839153945446,-0.00863499574586749,0.014088621509261429
1772454807927581000,1.802580810546875,0.03731120126247406,0.0018485504761338234,-0.03069039488323033
1772454807937598700,1.8125986328125,0.04122574435770512,0.04480915580242872,0.009994301400333642
1772454807947615700,1.82261572265625,0.03546937278807163,0.05042626503184437,0.0769152079035528
1772454807957633800,1.8326337890625,-0.0004261164575815201,0.02327113160267472,0.04869392481390387
1772454807967651800,1.84265185546875,-0.04665887532234192,-0.005396159955114126,-0.007629490231443196
1772454807977669600,1.852669677734375,-0.09224339941143989,-0.002466390113532543,-0.019105518089514224
1772454807987688000,1.86268798828125,-0.11569149501621723,0.02090937090739608,-0.025997487826645373
1772454807997705500,1.87270556640625,-0.07192834113538264,-0.002952858456224203,-0.03388838720694184
1772454808007723500,1.8827236328125,0.015438392150402068,0.007080605910718441,-0.006220591547898948
1772454808017740500,1.892740478515625,0.1032008467555046,0.04302709469124674,0.039213856546022
1772454808027758600,1.902758544921875,0.18083236796855925,0.04216565555632114,0.054886459311097854
1772454808037776400,1.9127763671875,0.18199030583202838,0.03788710145428777,0.00465635617217049
1772454808047794700,1.922794677734375,0.14458090489208697,0.040379648922383785,-0.008269815695285797
1772454808057812500,1.9328125,0.12911094855964184,0.04695741987749934,0.04068341764193028
1772454808067830500,1.94283056640625,0.1241448505848646,0.06900090938135982,0.04861490476094186
1772454808077848300,1.952848388671875,0.08904255754351616,0.0839127934396267,0.03666963368961587
1772454808087865600,1.962865478515625,0.06879822641611098,0.0924000512778759,0.016309768157452345
1772454808097883400,1.97288330078125,-0.009068857118487358,0.07585983536541462,-0.009516582619678228
1772454808107901700,1.982901611328125,-0.08860884230136871,0.05332651651799678,0.0015265885127708316
1772454808117919500,1.99291943359375,-0.1128431198477745,0.04170943622142076,0.013631233130581677
1772454808127937500,2.0029375,-0.09116904817819595,0.056089843751490114,0.025493611691426485
1772454808137955300,2.012955322265625,-0.05797638815045356,0.05627864432185888,0.09271762932706623
1772454808147972600,2.02297265625,-0.032172669330239295,0.04753185876458883,0.09625245238970964
1772454808157990400,2.032990478515625,-0.04326631027460098,0.026017215440422296,0.044887189474701876
1772454808168008400,2.043008544921875,-0.026426234632730482,0.0023494857355952263,0.036530133887380356
1772454808178026500,2.053026611328125,0.010400982505083084,0.02522752636745572,0.05124843160230666
1772454808188044500,2.06304443359375,-0.0013479074776172636,-0.004978080673515796,0.07236360901379957
1772454808198062300,2.073062255859375,0.052658992519974704,-0.00048149990662932395,0.03147659509116783
1772454808208080600,2.08308056640625,0.08223112396299838,0.0008566168293356895,-0.0050122934703715144
1772454808218097400,2.093097412109375,0.06498129847645759,-0.009162819012254476,-0.012869400178920477
1772454808228115500,2.103115478515625,0.09733692315816879,-0.0230083890132606,-0.045316922661475835
1772454808238133500,2.113133544921875,0.08480068219006061,-0.024388737455755472,-0.04455222189929336
1772454808248151600,2.123151611328125,0.06388181280195712,-0.0035547698721289634,-0.022244418903440234
1772454808258169600,2.133169677734375,0.033952538484334945,-0.021039865419268607,-0.016788747313432394
1772454808268187600,2.143187744140625,0.03614858722388744,-0.01970949359834194,-0.0013208368076011538
1772454808278204400,2.153204345703125,0.0263818109691143,0.02176364964917302,0.03869675560304895
1772454808288222500,2.163222412109375,-0.013776596418023108,0.03182239458784461,0.07399060742743313
1772454808298240500,2.173240478515625,-0.02233282783925533,0.005514379507303237,0.02482901030285284
1772454808308258600,2.183258544921875,-0.03169979112148285,0.013489888431131839,0.013732355417497455
1772454808318276600,2.193276611328125,-0.016260814449191092,0.0329477453559637,-0.004254990563355386
1772454808328294400,2.20329443359375,0.008002104669809341,0.03975713310986757,-0.006656571812368929
1772454808338312700,2.213312744140625,-0.006489362019300461,0.044038025299459695,0.03617974954713136
1772454808348329500,2.22332958984375,-0.02589081258177757,0.041300563159584996,0.007553557184711099
1772454808358347800,2.23334765625,-0.01476385388970375,0.06221154150217771,0.009889142259117216
1772454808368365600,2.243365478515625,0.006849427503347397,0.08038564222678542,0.06302240122733638
1772454808378383600,2.253383544921875,0.0328086291462183,0.0785040662638843,0.07200745251988992
1772454808388401400,2.2634013671875,0.07442834125757217,0.05185162165984511,0.03035571956876665
1772454808398419700,2.273419677734375,0.10812252106666564,0.04670052250698208,-0.010365290137194096
1772454808408436500,2.2834365234375,0.16665011335909366,0.04094795032963156,-0.028393552650324998
1772454808418454500,2.29345458984375,0.21824761412739752,0.024162673614919184,-0.027619024613872167
1772454808428472600,2.30347265625,0.1663128442287445,-0.009744856683909892,0.0024407533487770705
1772454808438490600,2.31349072265625,0.1519341902643442,0.020218758294731378,-0.05890624374593608
1772454808448508400,2.32350830078125,0.12075929979979991,0.03472469190061092,-0.0513150579645764
1772454808458526700,2.333526611328125,0.06933540203273296,0.004789572364091873,0.0081619988061022
1772454808468544500,2.34354443359375,0.06693477063179015,0.01696019489020109,0.01699918432687409
1772454808478561500,2.3535615234375,0.026427403676509857,0.017397563394159078,-0.010889816334797069
1772454808488579600,2.36357958984375,0.015427286234498024,0.006037672729045152,0.02388596643223427
1772454808498597600,2.37359765625,-0.0497661936879158,0.031143910804390905,0.07070703744580968
1772454808508615400,2.383615478515625,-0.09073650197982787,0.02145370691716671,0.027134072374831883
1772454808518633700,2.3936337890625,-0.1001683471918106,-0.00709828769788146,-0.025939209167612717
1772454808528651500,2.403651611328125,-0.09734043028950691,0.02677154093906283,-0.020078947965241966
1772454808538669600,2.413669677734375,-0.10263619861006736,0.05476005645245313,0.012642075962759554
1772454808548686600,2.4236865234375,-0.06375964772701263,0.04485577142313123,0.021796848665876313
1772454808558704600,2.43370458984375,-0.01507365049123764,0.023174100968986748,0.0010660491957794874
1772454808568722400,2.443722412109375,0.03393500282764435,0.011814502564817666,0.00006151179573498667
1772454808578740500,2.453740478515625,0.09824643921852111,0.0009042553633451461,-0.008926151579013095
1772454808588758500,2.463758544921875,0.09685176998972893,-0.0063046531021595,-0.021729573849635198
1772454808598776600,2.473776611328125,0.11857435697615146,-0.011694529446959494,0.025541889546252784
1772454808608793600,2.483793701171875,0.3996639194637537,0.07447364170402287,0.10909690079046412
1772454808618811600,2.493811767578125,0.39186522841155524,0.04800122984200716,-0.01854381081983447
1772454808628829400,2.503829345703125,0.10219897623658179,0.07132803715467452,-0.07509202019753866
1772454808638847500,2.513847412109375,0.04473872091472149,0.0069195701301097865,-0.051296307598333805
1772454808648865500,2.523865478515625,-0.001799158376455307,-0.004284837712347507,-0.009987935591628774
1772454808658883600,2.533883544921875,-0.013037760749459266,0.0752048785880208,-0.01198255260810256
1772454808668901400,2.5439013671875,-0.005438976183533668,0.09910334830880164,0.028071298426017164
1772454808678918700,2.553918701171875,0.009206219762563705,0.06401975996792315,0.0831236888885498
1772454808688936400,2.5639365234375,0.02829202850461006,0.03860036429017782,0.08057802299372852
1772454808698954500,2.57395458984375,0.06581541121304035,0.024174071791768073,0.04948422580822371
1772454808708972500,2.58397265625,0.08886895454227924,0.011510112790763378,0.008379851941019296
1772454808718990600,2.593990478515625,0.10850655194818973,0.009056874419748782,0.014204356843419372
1772454808729008400,2.60400830078125,0.12989479241371155,-0.010410919377207756,0.004159448633855208
1772454808739025700,2.614025634765625,0.15151508806943892,-0.03569587502032518,0.018793967922311274
1772454808749043500,2.62404345703125,0.15053893651366232,-0.0361044558212161,0.01615143579058349
1772454808759061500,2.6340615234375,0.12523966008424758,-0.021850305019319057,0.013376463785069062
1772454808769079600,2.64407958984375,0.0365513228058815,-0.021525310848653317,-0.03455701631666161
1772454808779097600,2.65409765625,0.0033159926801919937,-0.02327902264818549,-0.05564389921543188
1772454808789115400,2.664115478515625,-0.03415361401438713,0.02147504196614027,-0.0178880046590697
1772454808799133400,2.674133544921875,-0.04074000666737556,0.017355770079046488,0.021720532026654107
1772454808809150500,2.684150390625,-0.02398819383084774,-0.015297668505460023,0.030568567735003306
1772454808819168500,2.69416845703125,0.011385317367315292,-0.014505787475407123,0.051253920628177
1772454808829186600,2.7041865234375,0.04613631275296211,-0.00684708941578865,0.06390499274814501
1772454808839204600,2.71420458984375,0.060466451400518414,0.0005399520955979823,0.07358258374896831
1772454808849222400,2.724222412109375,0.03558744620978832,-0.0035587153948843475,0.09057639778098091
1772454808859240400,2.734240478515625,0.00032733225822448726,0.02353650454059243,0.08680415836642495
1772454808869257500,2.744257568359375,-0.03703706049621105,0.0238427940107882,0.03956446921513416
1772454808879275500,2.754275634765625,-0.07156944469511509,0.02937880082800984,0.018779893731186166
1772454808889293300,2.764293212890625,-0.07802782705426216,0.018489158023148773,0.014427534607425331
1772454808899311600,2.7743115234375,-0.04046761946678162,0.010289631085097789,0.014078182313637807
1772454808909329700,2.78432958984375,0.004565700480341911,0.024255320334434508,0.04889740236359648
1772454808919347500,2.794347412109375,0.03729483464956283,-0.004886895258724689,0.038939925842313095
1772454808929365800,2.80436572265625,0.046236265996098515,-0.008400017946213484,0.057236958826845506
1772454808939382500,2.814382568359375,0.06571545796990394,0.014845394693315028,0.08705473559400997
1772454808949400300,2.824400390625,0.06466039595901965,-0.0049675592795014375,0.050038955347845325
1772454808959418600,2.834418701171875,0.10646715507507323,-0.011280834079533815,0.014450614088913426
1772454808969436700,2.844436767578125,0.11998247020840644,-0.002453969023376703,0.05469903784706257
1772454808979454500,2.854454345703125,0.10407704506814479,-0.012441986813396215,0.03826947923484258
1772454808989472500,2.864472412109375,0.0821738408178091,-0.0068622869849205015,0.02298242345494218
1772454808999490000,2.874489990234375,0.0412654918462038,-0.002366144609451294,0.03339960817615501
1772454809009508000,2.884508056640625,0.002516366735100746,0.03266615193560719,0.03916602621576749
1772454809019526000,2.89452587890625,-0.027830840733647343,0.03554083058908582,0.07828455089484342
1772454809029544200,2.904544189453125,0.00632511136829853,0.02254676285088062,0.06392464729668572
1772454809039562000,2.91456201171875,0.06557809532582759,0.01368614165559411,0.043666689502727236
1772454809049580000,2.924580078125,0.11571195328235626,0.02087166924551129,0.05246968962610699
1772454809059598000,2.93459814453125,0.1316220545977354,0.008199819198995827,0.05723694969369098
1772454809069615000,2.944614990234375,0.10455343040823936,0.014539543614536523,0.044849524345435196
1772454809079633000,2.9546328125,0.045455929273366925,0.010672054531425237,-0.02119376820619218
1772454809089651200,2.964651123046875,-0.010060206243395806,0.008901537727564572,-0.029945394335361197
1772454809099669000,2.9746689453125,-0.03771276780068874,0.013079407934099434,0.004450257407128811
1772454809109687000,2.98468701171875,-0.035235564032197,0.011759557507187128,0.0047133927221875635
1772454809119705000,2.994705078125,0.004244797962903976,0.010851502751559019,-0.03227189192101359
1772454809129722000,3.00472216796875,0.023403087419271468,-0.0051158817090094085,0.004971769663738086
1772454809139740000,3.014739990234375,0.04431026636958122,-0.0063590136379003525,0.04839612004426308
1772454809149758200,3.02475830078125,0.01092880577147007,0.0003803776197135448,0.03853996673929505
1772454809159776000,3.03477587890625,-0.010625438910722733,0.003537088084965944,0.011130347092403098
1772454809169794000,3.0447939453125,-0.028114333850145338,0.016930530404299496,0.013224223232269286
1772454809179811800,3.054811767578125,-0.023157003703713416,0.011162906788289547,0.03769252873025834
1772454809189830100,3.064830078125,0.00030336686074733735,0.021317367186397315,0.032465706593217326
1772454809199847000,3.074846923828125,0.02853518961071968,0.01925064391493797,0.04311598768425174
1772454809209865200,3.084865234375,0.04540799847841263,0.027424598020315168,0.04139575802921317
1772454809219883000,3.094883056640625,0.09255319601297378,0.01098915765658021,0.021581689811544492
1772454809229901000,3.104901123046875,0.12452069815993308,0.004220832565426826,0.026862644155463203
1772454809239918800,3.1149189453125,0.14438742814660072,0.03778992469012737,0.04725738920476287
1772454809249937200,3.124937255859375,0.07915303169190883,0.04874313425049186,0.059500656841974704
1772454809259954000,3.134953857421875,-0.019922844088077544,0.03840498784855008,0.06258159865727647
1772454809269972000,3.144971923828125,-0.06659516341388225,0.03540127598792314,0.032341797085758295
1772454809279990000,3.154989990234375,0.008194412371516227,0.027718320269882676,-0.017502046681940553
1772454809290008000,3.165008056640625,0.14098375718295572,0.06018997254669666,-0.016987685685325413
1772454809300025900,3.17502587890625,0.2209936979651451,-0.00841302355825901,-0.011234401121921837
1772454809310044200,3.185044189453125,0.2675187177747488,-0.01248860243409872,-0.02213178884182125
1772454809320062000,3.19506201171875,0.22754443478286265,0.09370806513652205,0.0736666909690015
1772454809330079000,3.205078857421875,0.1760071397691965,0.015547697743773459,-0.0066857796405442056
1772454809340097000,3.215096923828125,0.09582125789821147,-0.06548004177883267,-0.0889169036035426
1772454809350115000,3.225114990234375,-0.00523848517537117,-0.01613718806952238,-0.048217630805354565
1772454809360132900,3.2351328125,-0.058981765800714486,0.0036409868508577347,-0.04055149835795164
1772454809370151200,3.245151123046875,-0.12277590031921863,0.012678718178719281,-0.006030494069587439
1772454809380169200,3.255169189453125,-0.15761457398831843,0.031069676524400708,0.0936648287829943
1772454809390186000,3.26518603515625,-0.11354045446217059,0.05432078825235367,0.11911063754362985
1772454809400204000,3.2752041015625,-0.09139934980273247,0.10186185323670506,0.12089622405245899
1772454809410222000,3.28522216796875,-0.05703180077672004,0.07289630938470364,0.1148494912341237
1772454809420240000,3.295239990234375,0.00030161329507827757,0.06451806487888097,0.1032355710090138
1772454809430258000,3.3052578125,0.047860067805647846,0.05204334483966231,0.11106856618961318
1772454809440276200,3.315276123046875,0.07018705042600631,0.031374066298454996,0.04691825691089034
1772454809450294000,3.3252939453125,0.08834405388534068,0.011303192041814326,0.05097978899506852
1772454809460311000,3.33531103515625,0.10419044231474399,0.00863499574586749,0.07548004226759075
1772454809470329000,3.3453291015625,0.12734393888711928,0.011976707389205693,0.084453896312695
1772454809480347000,3.355346923828125,0.11950257773697376,0.009509732753783464,0.08390921324305235
1772454809490365000,3.365364990234375,0.09093757750988006,0.02951280247122049,0.07149115529451519
1772454809500383200,3.37538330078125,0.06254559576213359,0.020478432144224644,0.08951886981837451
1772454809510401000,3.385401123046875,0.04214402824640274,0.012599077071249484,0.06188899501692503
1772454809520418000,3.39541796875,-0.02255377711355686,0.02214446566030383,0.05005480137094855
1772454809530436000,3.40543603515625,-0.07835515931248664,0.03099076606929302,0.04475852159373462
1772454809540454100,3.4154541015625,-0.06412848103940487,0.04076382593438029,0.023621351546142248
1772454809550472000,3.425471923828125,-0.03782499600350857,0.055094695234298705,0.007376319187972694
1772454809560490200,3.435490234375,0.0017769465446472166,0.04937354110851883,0.046552053947001695
1772454809570508000,3.445508056640625,0.0372790525585413,0.04203428426161408,0.07055316205834969
1772454809580524800,3.45552490234375,0.1312514677196741,0.0546808537364006,0.001357880882360041
1772454809590543000,3.465543212890625,0.1411900934100151,0.03296601166501641,-0.005548628836777061
1772454809600561200,3.47556103515625,0.12700491619110107,0.007436287480592727,0.01914444359410554
1772454809610579000,3.485578857421875,0.1833405513972044,0.008792232134193181,0.02178693919321522
1772454809620597200,3.49559716796875,0.18769874660670757,0.003915712139010429,0.03716101566944271
1772454809630615000,3.505614990234375,0.2287619938790798,0.01850932402834296,0.0407770324758254
1772454809640633000,3.515633056640625,0.21812311096489428,0.018609861793369053,0.06452749029435217
1772454809650650000,3.525650146484375,0.16615736140608786,0.024200959798693654,0.05952758138151839
1772454809660668200,3.535668212890625,0.08519348089993,0.007507306890189647,0.036538737318944185
1772454809670686000,3.54568603515625,-0.00405599739253521,-0.014354688566923141,-0.017660908771771937
1772454809680704000,3.5557041015625,-0.049229602593183514,-0.02610562437623739,-0.06869166076909751
1772454809690722000,3.56572216796875,-0.031409283742308614,-0.028024463609606025,-0.07721057412093504
1772454809700740000,3.575739990234375,-0.008634557354450225,-0.005119388840347528,-0.07966974904239177
1772454809710758000,3.5857578125,-0.05423310996890068,-0.025266981595009563,-0.058345422392245376
1772454809720775200,3.595775146484375,-0.057470776715874666,-0.027202479702234265,-0.029612518252339213
1772454809730793000,3.60579296875,-0.03770049284100532,-0.0010234978288412094,-0.014068729498703032
1772454809740811000,3.61581103515625,-0.0359586176097393,0.030415450399369,0.018104962744843214
1772454809750829000,3.6258291015625,-0.061384735289216036,0.010190116233378649,-0.029974519965145736
1772454809760847000,3.63584716796875,-0.13802081572413444,-0.0156722009062767,-0.07132931579630822
1772454809770865000,3.645864990234375,-0.12429507271051406,0.00148074007704854,-0.04169171790163964
1772454809780882200,3.655882080078125,-0.06316168183386325,0.0457183796018362,-0.003816891407035291
1772454809790900000,3.66589990234375,0.01952010850608349,0.06200096749141812,-0.007960950675513594
1772454809800918000,3.67591796875,0.06296411343514918,0.012417729154974222,-0.007613160151150077
1772454809810936000,3.68593603515625,0.08781681514084339,-0.016452976020425558,-0.00992035938128829
1772454809820954000,3.6959541015625,0.1404056650340557,-0.02164192296564579,0.0016613208083435893
1772454809830972000,3.705971923828125,0.16594810256958006,0.023009850317984817,0.027211996449250726
1772454809840989200,3.7159892578125,0.1213175182044506,0.044580461613088845,0.061691572748683386
1772454809851007000,3.726007080078125,0.06372340736985206,0.0173376499004662,0.05504002417130396
1772454809861025000,3.73602490234375,0.05148351899981499,0.016007862601429224,0.016470584742352367
1772454809871043000,3.74604296875,-0.008992284750938415,0.03367766706570983,0.01059436791902408
1772454809881061000,3.75606103515625,-0.056439680102467533,0.023191636625677345,0.03134303183937445
1772454809891079000,3.766078857421875,-0.09939385568797587,0.016666911032050848,-0.0030029812082648277
1772454809901097000,3.776096923828125,-0.10989069978296756,0.013916735541075467,-0.03437748589813709
1772454809911114000,3.786114013671875,-0.08739128320515155,0.01832812224254012,-0.03588955269521102
1772454809921132000,3.796132080078125,-0.03138064216971397,0.039121027163416144,-0.02921082384996116
1772454809931150000,3.806150146484375,0.07824936085045338,-0.0024694588534533977,-0.037934575591515744
1772454809941168000,3.816168212890625,0.14285247366428375,-0.014796002593636512,-0.02950732257850468
1772454809951186000,3.82618603515625,0.17880583057701588,-0.041081075190007685,-0.014937274227850138
1772454809961204000,3.836203857421875,0.18223814311325548,-0.032096535354107614,0.006097056499775499
1772454809971221000,3.846220947265625,0.11470248397886752,-0.01863791884407401,0.015760043586511164
1772454809981239000,3.856239013671875,0.020362989071011542,-0.021257015301287173,0.021291264630760996
1772454809991256800,3.8662568359375,-0.034682021802663804,-0.015051292528957127,0.05050070024123415
1772454810001275100,3.876275146484375,-0.08854162228405475,0.0020762217521667478,0.06423384111002087
1772454810011293000,3.88629296875,-0.12931845383048057,0.011323942568898201,0.05652639027154073
1772454810021311000,3.89631103515625,-0.14788462261259555,0.008083060951530933,0.06852072464898228
1772454810031328000,3.906327880859375,-0.10929565649926662,-0.008741378729790448,0.05476274159988388
1772454810041346000,3.916345947265625,-0.043974166283011436,-0.0003372691303491592,0.037157453739177435
1772454810051363800,3.92636376953125,0.02030336783826351,0.027419775714725255,0.05518463854007422
1772454810061382100,3.936382080078125,0.09597615619897842,0.01906578886732459,0.05989617723189294
1772454810071400000,3.94639990234375,0.10811784489154815,0.02139437794536352,0.023163177716173232
1772454810081418000,3.95641796875,0.0876858822375536,0.006223112298548221,0.0057568830262869596
1772454810091436000,3.96643603515625,0.07559855408072472,0.009423954166471958,-0.006744670220930129
1772454810101453000,3.976453125,0.07040273900330066,0.02281374322399497,0.00559027602141723
1772454810111470800,3.986470947265625,0.09645254153907298,0.03921688875332475,0.006153170601185411
1772454810121489200,3.9964892578125,0.11393500673770904,0.056564037134498354,0.04356739384671673
1772454810131507000,4.0065068359375,0.10585808326601981,0.052971565600484605,0.06897312632529065
1772454810141525000,4.01652490234375,0.08837444902360439,0.057059565566480154,0.03997090372471138
1772454810151542800,4.026542724609375,0.028474399334192275,0.05480418785512447,0.03345662645986303
1772454810161560000,4.03656005859375,-0.025267712247371673,0.0531342088162899,0.049618912438023834
1772454810171577900,4.046577880859375,-0.04972995333075523,0.04053220913559198,0.05085079232053831
1772454810181596200,4.05659619140625,-0.02656827345192432,0.045006870331615205,0.05770016502495855
1772454810191614000,4.066614013671875,0.006238017606735229,0.0194857678450644,0.05139479953674599
1772454810201632000,4.076632080078125,0.0044137247890233995,0.03945391237959266,0.0771771102427505
1772454810211649800,4.08664990234375,0.0035071313381195065,0.05006166950315237,0.13335857780044896
1772454810221668000,4.096668212890625,0.008119593569636345,0.05167524217963219,0.1229506358316168
1772454810231684900,4.106684814453125,0.03419102341532707,0.03538578615784645,0.07820225203940645
1772454810241703000,4.116702880859375,0.06436755049228668,0.033918782345205546,0.03479381161406636
1772454810251721000,4.126720947265625,0.061011810323596,0.05285144635215401,0.06015976007152348
1772454810261739000,4.136739013671875,0.05273790297508239,0.049140609135478734,0.07525964098256081
1772454810271756800,4.1467568359375,0.07143266657292842,0.03799816061332822,0.02768390654362738
1772454810281775000,4.156775146484375,0.10380816499888897,0.028811083942651746,0.01901615930562839
1772454810291792000,4.1667919921875,0.13707564382851123,0.025721008972823617,-0.007706099131610244
1772454810301810000,4.176809814453125,0.13001988009810447,0.02465586395934224,0.013571721495687961
1772454810311828000,4.186827880859375,0.07600070514082909,0.021055355249345303,0.01957912695063278
1772454810321846000,4.196845947265625,-0.0027419921845197675,0.03206935508623719,0.02828662167713046
1772454810331863800,4.20686376953125,-0.08999766631126403,0.03403744028881192,-0.024754922153335062
1772454810341882000,4.216882080078125,-0.1480775148361921,0.038267186813056464,-0.05024391246857121
1772454810351899000,4.22689892578125,-0.14967559768259525,0.036100802559405565,0.003325838220771402
1772454810361917000,4.2369169921875,-0.12460603835582733,0.03492927456200123,0.03566924274172634
1772454810371935000,4.24693505859375,-0.08310907584130764,0.02894187071546912,0.05448052712501958
1772454810381953000,4.256953125,0.0020826514929533,0.027859482306241988,0.06796586724519729
1772454810391971000,4.26697119140625,0.060085927650332445,0.04560103683248162,0.09602759412527084
1772454810401988900,4.27698876953125,0.05599544346630573,0.048090807821601626,0.05975433934209868
1772454810412007200,4.287007080078125,0.03128185797035694,0.043770022013038395,0.038468390207272024
1772454810422024000,4.29702392578125,0.019442951616644857,0.017663813114911317,0.057374294071458276
1772454810432042000,4.3070419921875,0.04517418972253799,0.002835954078286886,0.09122373750749975
1772454810442060000,4.31706005859375,0.02583820561170578,0.0185730369143188,0.07153535976242274
1772454810452078000,4.327078125,-0.007913841864466666,0.03900383052453398,0.013446359816659242
1772454810462096000,4.337095947265625,-0.019816461104154585,0.03145078479647636,0.08281345389559865
1772454810472114200,4.3471142578125,0.11354513063728809,0.0355514981135726,0.16434267666693775
1772454810482131000,4.357130859375,0.2789367683678865,0.07623699811473489,0.09979808910731226
1772454810492149000,4.36714892578125,0.44640170524120326,0.0316083134457469,0.010230850102566183
1772454810502167000,4.3771669921875,0.4193348346173763,0.006172843416035175,-0.036255810458026824
1772454810512185000,4.38718505859375,0.16724691020846366,0.0490242892794311,-0.030617914168909192
1772454810522203000,4.397202880859375,0.05645253958404064,0.047317923752963544,-0.006115140145737678
1772454810532221200,4.40722119140625,-0.02325578790307045,-0.005721884778141975,-0.008785601464007049
1772454810542239000,4.417239013671875,-0.07237082420587539,0.05357596123442054,-0.009270882496610284
1772454810552256000,4.427256103515625,-0.17097206821143626,0.08479366792738437,0.03446485365433618
1772454810562274000,4.437274169921875,-0.26617431742846964,0.054827568730711936,0.04863708006013184
1772454810572292000,4.4472919921875,-0.27091829708516596,0.04999532626867294,0.03922116306964308
1772454810582310000,4.457309814453125,-0.21187632552981375,-0.02595028768405318,-0.01922094289641827
1772454810592328200,4.467328125,-0.010392214676737784,-0.0857882319226861,-0.09035901043694466
1772454810602346000,4.477345947265625,0.17566110281050204,0.11837766536027193,0.0553940617733635
1772454810612363000,4.487363037109375,0.15115969876050947,0.11210896035432814,0.05425521220285445
1772454810622381000,4.497381103515625,0.06700958943367004,-0.043801878456026316,-0.02968830516859889
1772454810632399000,4.507399169921875,0.028720483049750327,-0.08812821917757391,-0.020335206014942375
1772454810642417000,4.5174169921875,-0.0010176526099443435,-0.0655618748433888,-0.0008551189919933676
1772454810652435000,4.52743505859375,-0.021256138518452643,-0.007702683331817388,0.013955240920558571
1772454810662453000,4.537452880859375,-0.04590893373787403,0.005232201565057039,0.04619980644322932
1772454810672470000,4.547469970703125,0.004442366361618042,0.009690642278641462,0.09505823763646185
1772454810682488000,4.557488037109375,0.08750117332041263,0.019508271937817335,0.10058089178176596
1772454810692506000,4.567506103515625,0.13680968636870383,0.0220848444275558,0.042643502201139924
1772454810702524000,4.57752392578125,0.18055472007095813,0.03248670371547341,0.0054300987573340535
1772454810712542000,4.5875419921875,0.19497195248007773,0.02404445406273007,-0.03256658228496089
1772454810722560000,4.59756005859375,0.18190555015802382,0.025587299590557812,-0.03407705991314724
1772454810732578000,4.607578125,0.16534429145753382,0.02095028743967414,-0.011685067498870194
1772454810742595000,4.617594970703125,0.11041326235234737,-0.005043547125160694,-0.026909798632282763
1772454810752613000,4.627613037109375,0.07348316936194896,0.01577083897516131,-0.01110365088172257
1772454810762631000,4.637630859375,-0.0015431377887725828,0.03790259128436446,-0.005531915163993835
1772454810772649000,4.64764892578125,-0.025955109989643094,0.050358168231695886,-0.02259650201043114
1772454810782667000,4.6576669921875,-0.06228899065256118,0.0178399003341794,-0.024714425746165215
1772454810792685000,4.66768505859375,-0.07100771915912628,0.003938800753653049,-0.0016684994678013026
1772454810802701800,4.677701904296875,-0.014407880058884619,0.016256722795963286,0.018345767497085035
1772454810812720000,4.68772021484375,0.038432314246892925,0.010793342823535203,0.029846546203922478
1772454810822738000,4.697738037109375,0.08135024947524071,-0.029294629675894975,0.02716057678926736
1772454810832756000,4.707755859375,0.050883215019106864,-0.021167729582637546,0.04055107823284343
1772454810842774000,4.71777392578125,0.023166940575838086,-0.015423048450797795,0.01415034336755052
1772454810852792000,4.7277919921875,0.003615852409601211,-0.0013294950380921362,0.02341733514033258
1772454810862808800,4.737808837890625,0.03250467776358128,0.03720832540988922,0.08724383755847812
1772454810872827100,4.7478271484375,0.06823942348957061,0.047346565325558185,0.0703405422209762
1772454810882845000,4.757844970703125,0.04956920981109142,0.009628975219279527,0.022173856151569634
1772454810892863000,4.767863037109375,0.08205459835231303,-0.008583996210992336,0.003055843906663358
1772454810902881000,4.777881103515625,0.10561199955046176,0.012833470349013805,0.032878607376199215
1772454810912899000,4.787899169921875,0.116232762286067,0.04566255776137113,0.0959395505156368
1772454810922916900,4.797916748046875,0.13589958578646183,0.030078765790909526,0.08651170562533661
1772454810932934100,4.80793408203125,0.08168225790858269,0.016244009444862602,-0.0034377376300282775
1772454810942952000,4.817951904296875,0.03505027059316635,-0.003895546133816242,-0.04744085601288825
1772454810952970000,4.827969970703125,0.009138999745249747,-0.02203530619740486,0.0024668650375679136
1772454810962987800,4.83798779296875,0.012754852154850959,-0.020330548106133935,0.03741621427321806
1772454810973006000,4.848006103515625,0.01483750364780426,0.015809271289408205,-0.005595500185806304
1772454810983023900,4.85802392578125,-0.034950317350029944,0.0104699560880661,-0.02406820026449859
1772454810993041200,4.868041259765625,-0.11432371379435062,-0.0060788815222680564,-0.027604466365557162
1772454811003059000,4.878058837890625,-0.07652852840721606,-0.016571926224976778,-0.027311310371570287
1772454811013077000,4.888076904296875,0.004675590595602989,0.030008184772729873,0.05554519721446558
1772454811023094800,4.8980947265625,0.07045125432014465,0.010394114372879267,0.047534836172964424
1772454811033113000,4.908113037109375,0.12942191420495508,-0.04269143299609422,0.007840319970529527
1772454811043131100,4.918131103515625,0.1203676701337099,-0.0520135342232883,-0.007861307959631084
1772454811053148000,4.92814794921875,0.13957213681936262,-0.03906476693153381,-0.0005396963672712444
1772454811063166000,4.938166015625,0.09894202026724815,-0.045089872439950704,0.02742183980764821
1772454811073184000,4.94818408203125,0.006986205625534057,-0.04271656743735075,0.0521300184761174
1772454811083201800,4.958201904296875,-0.0651730216562748,-0.018226707694679496,0.06492361347246915
1772454811093220000,4.96822021484375,-0.07524433381557465,0.019493366629630325,0.07645581023087725
1772454811103238100,4.978238037109375,-0.05413900194466114,0.008830810578912496,0.06013294512983411
1772454811113256000,4.988255859375,-0.03971183266341686,-0.024182255098223686,0.006864734670333564
1772454811123273000,4.99827294921875,0.013110241463780403,-0.038652094477415085,-0.0393282949722372
1772454811133291000,5.008291015625,0.05328092381060123,-0.009461509697884321,-0.014564020468667149
1772454811143308800,5.018308837890625,0.10758125379681586,-0.010464110869169235,0.037040001371968535
1772454811153327000,5.0283271484375,0.11475509094893932,-0.01661824958473444,0.026218364035710692
1772454811163345200,5.03834521484375,0.059790744096040724,-0.02328881338983774,-0.006577350830007344
1772454811173363000,5.048363037109375,0.021321020448207852,-0.020703911463171243,-0.0067112611416727305
1772454811183380000,5.0583798828125,0.03104045042991638,0.0022663374967873094,0.05180739892562851
1772454811193398000,5.06839794921875,0.035976737788319585,0.02111030030697584,0.03285022153193131
1772454811203416000,5.078416015625,0.018707623079419134,-0.0069642860546708105,-0.04005293771866709
1772454811213433900,5.088433837890625,-0.020128011271357535,0.015480477726459503,-0.04230281727099791
1772454811223452200,5.0984521484375,-0.052932548764348025,0.014667261647433042,-0.027352062507066875
1772454811233470000,5.108469970703125,-0.012698738053441046,-0.0018574644349515436,0.020124412808474153
1772454811243487000,5.118487060546875,0.048018473237752914,0.010973083304613829,0.04753048879140988
1772454811253505000,5.128505126953125,0.10332651896178721,0.014184884957969188,0.03397096919016913
1772454811263523000,5.138523193359375,0.1577782401174307,0.0012969079427421091,0.03753092669406906
1772454811273540900,5.148540771484375,0.18600772477984429,-0.005283639491349458,0.04564799951305613
1772454811283559200,5.15855908203125,0.19131635258197782,0.016430618058145045,0.04054983612382784
1772454811293577000,5.168576904296875,0.15534662905633448,0.03358151321485638,0.004168572655227035
1772454811303595000,5.178594970703125,0.11342939530313015,0.02311214164867997,-0.009002970541734249
1772454811313612000,5.188612060546875,0.1071311719417572,0.02751636795699596,0.03196903651691973
1772454811323630000,5.198630126953125,0.08601824128627776,0.053514878696948286,0.06378914781613275
1772454811333648000,5.20864794921875,-0.01693184557855129,0.059887920860201116,0.042563714963197705
1772454811343666200,5.218666259765625,-0.10055237807333468,0.04740457912310957,0.003497413661703467
1772454811353684000,5.22868408203125,-0.09378361459076404,0.0379379548586905,0.00062918301532045
1772454811363702000,5.238701904296875,-0.008154080361127853,0.016902765614539385,0.018158172503113745
1772454811373719000,5.248718994140625,0.04152969574034214,0.04390986887514591,-0.01183254967816174
1772454811383737000,5.258737060546875,-0.0009264671951532363,0.036796968130022284,-0.06447864618394523
1772454811393755000,5.2687548828125,-0.0192407070428133,0.018254034093022346,-0.054517699063941834
1772454811403773200,5.278773193359375,0.025919454154372214,0.0055371758610010145,0.015315258961077778
1772454811413791000,5.288791015625,0.06759703393280506,0.04219108225852251,-0.015052096246555447
1772454811423809000,5.29880908203125,0.08090718188285827,0.02775324545279145,-0.03281635579494759
1772454811433826000,5.308825927734375,0.05400339286625385,-0.017616466841846704,-0.060987096007447686
1772454811443844000,5.318843994140625,0.08190963692367076,-0.013581950628757476,-0.08107525019245222
1772454811453862000,5.32886181640625,0.13957915108203886,0.015007891778647899,-0.026390323069132863
1772454811463880000,5.3388798828125,0.1984194625854492,0.05156213719397783,-0.03852432164559141
1772454811473898000,5.34889794921875,0.15655600484609603,0.040163960345089435,-0.06093494569510221
1772454811483916000,5.358916015625,0.10700374616980551,0.045785453488677734,-0.0287253601542674
1772454811493933000,5.36893310546875,0.052432782548666,0.07286679102927446,-0.015215597978886216
1772454811503951000,5.378951171875,-0.03180383601784706,0.06940627531185746,-0.009110157243255526
1772454811513969000,5.388968994140625,-0.054577393361926074,0.07069792255759239,-0.04326757064992562
1772454811523987000,5.398987060546875,-0.07236965516209602,0.097247929700464,-0.07047226057555527
1772454811534005000,5.4090048828125,-0.04540390682518482,0.09249985839053988,-0.05310801492910832
1772454811544023000,5.41902294921875,0.020776830568909645,0.09455532961562275,0.008570881001092493
1772454811554040800,5.429040771484375,0.06980477311015129,0.08285057103559375,0.01209185820147395
1772454811564058000,5.43905810546875,0.10963584823906421,0.06722045570537448,0.031177173753175882
1772454811574076000,5.449075927734375,0.08528992701172829,0.027051526924222705,0.01517957681743428
1772454811584094000,5.459093994140625,0.035754034948348994,0.00973214333280921,0.017238116782438008
1772454811594112000,5.469112060546875,0.013785364246368408,-0.0006003039807081222,0.038539153888542205
1772454811604130000,5.479130126953125,-0.02862929763495922,0.002124006416648626,0.0492156653993763
1772454811614147800,5.48914794921875,-0.0777647922039032,0.003728372873365879,0.02703629282247275
1772454811624165000,5.4991650390625,-0.08372340834736823,-0.004251958356052637,0.05054105051793158
1772454811634183000,5.509182861328125,-0.03677227208018303,0.00296148015409708,0.05564120493484661
1772454811644201000,5.519200927734375,0.040785599374771116,0.001471241596341133,0.04325814523445442
1772454811654219000,5.529218994140625,0.08073883957862854,-0.014367109657078981,0.049203299108147615
1772454811664237000,5.539237060546875,0.09859715235233306,-0.012075491588562727,0.06478365701250731
1772454811674254800,5.5492548828125,0.0779343035519123,-0.011512304747849702,0.043027021626010534
1772454811684272000,5.559272216796875,0.05356324788331985,-0.010011690926551818,0.06448808986572549
1772454811694290000,5.5692900390625,0.05059621477127075,0.009791180043667554,0.06993680199198424
1772454811704308000,5.579307861328125,0.08766776205897331,0.018342004637420178,0.03703711529513821
1772454811714326000,5.589325927734375,0.05940554417073726,0.028398265358060597,0.005099423764552921
1772454811724344000,5.599343994140625,0.015579261925816535,0.03314516762420535,-0.01704774530949071
1772454811734361900,5.60936181640625,0.005586860221624374,0.04094327415451407,-0.028530714365001767
1772454811744379100,5.619379150390625,0.0006938274830579757,0.04731923892721533,0.0007020473221316933
1772454811754397000,5.62939697265625,0.03161737353503704,0.06258826586008072,-0.013715057222824543
1772454811764415000,5.6394150390625,0.0788368053495884,0.05320625113919377,-0.016324983992893248
1772454811774433000,5.64943310546875,0.08341945696473121,0.030045740304142234,0.008712043037451803
1772454811784451000,5.659451171875,0.10155132598280905,0.01992518217563629,0.035811135430447755
1772454811794468900,5.66946875,0.11075345409214496,0.00754310885593295,0.03864170094756409
1772454811804487000,5.67948681640625,0.10912789871692657,0.01917261024266481,0.05471590678347275
1772454811814504000,5.68950390625,0.07813362551629544,0.008497194710373877,0.018934855964034793
1772454811824522000,5.69952197265625,0.022687632626295088,-0.003028407910466194,-0.01012485071113333
1772454811834539800,5.709539794921875,-0.02556581841111183,-0.002045534352958202,-0.010388488349691033
1772454811844558000,5.71955810546875,-0.04643792604804039,-0.0019271686702966688,0.023732794297672808
1772454811854576000,5.729576171875,-0.04003039709329605,0.00716755354180932,0.022073464517015962
1772454811864594000,5.739593994140625,-0.03328969066143036,-0.013454963248223066,0.03073598759062588
1772454811874611000,5.74961083984375,-0.04327624714672565,-0.00600464724227786,0.01028206883314997
1772454811884629000,5.75962890625,-0.014834581038355827,0.008359832066297531,0.04407183623751625
1772454811894646800,5.769646728515625,0.01638765569925308,-0.0021555705986917016,0.06570630654906853
1772454811904665000,5.7796650390625,0.048557402420043944,-0.008379121288657188,0.05877922896593809
1772454811914683100,5.78968310546875,0.031027006426453587,0.002363222000002861,-0.008402757892571389
1772454811924701000,5.799700927734375,0.003301379632949829,0.013109803072363138,0.009681034200079739
1772454811934718000,5.809718017578125,-0.006281272226572036,0.03151099055111408,0.06929607466934248
1772454811944736000,5.819736083984375,0.00793897630572319,0.019244506435096263,0.03931486923508346
1772454811954753800,5.82975390625,0.016880992174148558,0.012967325861752033,-0.030846517026703803
1772454811964772000,5.839772216796875,0.017230536264181136,-0.002425911972671747,0.002519581605494022
1772454811974790100,5.8497900390625,0.05808510922193527,0.0017545885823667048,0.05640166791332885
1772454811984808000,5.859807861328125,0.07555646850466728,-0.0015396306574344634,0.02705963716544211
1772454811994824700,5.86982470703125,0.07492576938569545,-0.0076456924475729465,0.006272248669899999
1772454812004842800,5.8798427734375,0.04358487470448017,-0.0013142974689602852,0.011571524121798574
1772454812014860500,5.889860595703125,0.039244799673557276,0.0034118542701005936,0.021249946239683775
1772454812024878800,5.89987890625,0.04212298545837402,-0.001985766989737749,0.05586356071494519
1772454812034897000,5.90989697265625,0.06070201372206211,-0.0028089199408888816,0.03840812965370714
1772454812044914700,5.919914794921875,0.08039280261993408,0.005984481237083673,0.025293047618027774
1772454812054931700,5.929931640625,0.0750759915113449,0.010611556515842675,0.023191088636405763
1772454812064949800,5.93994970703125,0.040352468654513356,-0.0010433715730905533,0.030207780731748787
1772454812074967800,5.9499677734375,0.025161329263448714,-0.002469312722980976,0.00016841536946594714
1772454812084985900,5.95998583984375,0.023394904112815855,-0.018229338043183087,-0.008883435815293342
1772454812095004000,5.97000390625,0.04730301844477653,-0.015815408769249917,0.006610595512483269
1772454812105021700,5.980021728515625,0.04321837947964668,0.00017594108879566192,-0.014548073980864136
1772454812115039700,5.990039794921875,0.025607903987169264,-0.013366262051463126,-0.0279557640212588
1772454812125056800,6.000056884765625,0.01940671125948429,0.007049187859147787,-0.01784158083461225
1772454812135074800,6.01007470703125,0.028998130947351455,0.0004838379941880703,0.01968877960387617
1772454812145092600,6.020092529296875,0.05800619876682758,-0.02523307932540774,0.04232654520645737
1772454812155111000,6.03011083984375,0.04165244533717632,-0.026596038241684435,0.005175959599483758
1772454812165128700,6.040128662109375,0.0032861820638179777,-0.0114339788146317,0.01692097712466493
1772454812175146800,6.050146728515625,-0.030395722785592078,0.007720218988507986,0.006070935677830129
1772454812185163800,6.060163818359375,-0.06116553958058357,0.01768470977246761,-0.008061561505775899
1772454812195181800,6.070181884765625,-0.043352819514274596,0.020127865140885114,-0.009929510802123695
1772454812205199600,6.08019970703125,0.011253215420246123,0.050319735917448996,0.015892437794525174
1772454812215218000,6.090218017578125,0.04022971905767917,0.04740282555744052,0.03580899827228859
1772454812225235700,6.100235595703125,0.06196808813512325,0.01681990963667631,-0.007758011981938034
1772454812235253800,6.110253662109375,0.09329787690043449,0.016919862879812717,0.003439253733679652
1772454812245270800,6.120270751953125,0.11521627871990203,-0.0020813363187015053,0.045159284414350985
1772454812255288800,6.130288818359375,0.10851882690787315,0.00391220500767231,0.05534603964686394
1772454812265306600,6.140306640625,0.09325228419303894,0.030759733792394398,0.03984168785447254
1772454812275325000,6.150324951171875,0.05843348426818847,0.009735212072730063,0.03650549263646826
1772454812285342700,6.1603427734375,0.04207330109775066,-0.002458937459439039,0.02178465590458363
1772454812295360800,6.17036083984375,0.03661620473563671,0.0066673489347100256,-0.0055568121432326735
1772454812305377800,6.180377685546875,0.059580316215753555,0.040039311052113766,-0.001230491643026471
1772454812315395800,6.190395751953125,0.05834755955040455,0.02171118880957365,0.01759032775359228
1772454812325413600,6.20041357421875,0.06308686303198337,0.0028328853383660316,0.03195235937675461
1772454812335432000,6.210431884765625,0.04442074100673198,0.01166398817822337,-0.012864066416677087
1772454812345449700,6.22044970703125,-0.003772504276037216,0.019731705430150032,-0.015651742640137672
1772454812355467800,6.2304677734375,-0.028329437905550002,0.007936053696274757,0.002808225821144879
1772454812365484800,6.24048486328125,-0.05077975464463234,0.002042757873982191,-0.0037488128731958566
1772454812375502800,6.2505029296875,-0.06717559365034104,-0.0021828969970345497,0.025791681322548537
1772454812385520600,6.260520751953125,-0.05886486142277717,0.005512041419744491,0.052347588483244174
1772454812395538700,6.27053857421875,-0.012817395997047424,0.018689210639894007,0.039292894865293054
1772454812405556700,6.280556640625,-0.004921089789271354,0.009181377582252025,-0.016630853337980808
1772454812415574800,6.29057470703125,0.03760404672920704,-0.00605170125439763,-0.01684223106633872
1772454812425592600,6.300592529296875,0.07112228544950484,0.004329261375963687,-0.008168510745279491
1772454812435609900,6.31060986328125,0.09834639246165752,0.0112672439455986,0.011845098632480948
1772454812445627600,6.320627685546875,0.09397416872680187,0.012439064203947782,0.039882787049841134
1772454812455645700,6.330645751953125,0.05970423485636711,0.011679185747355223,0.017296075781062244
1772454812465663700,6.340663818359375,0.03277589592039585,0.021730624162405728,-0.005730707405414432
1772454812475681800,6.350681884765625,0.02092646817266941,0.0358769306756556,-0.02140510026877746
1772454812485699600,6.360699462890625,0.04701543367505073,0.03552884789034724,-0.0165916538387537
1772454812495716900,6.370716796875,0.08248129933178425,0.03462371574416757,-0.024576040188781914
1772454812505734700,6.380734619140625,0.1177314764112234,0.031043811430782078,-0.024405250199139118
1772454812515752700,6.390752685546875,0.10347031134665012,0.022963819219172,-0.03996047366224229
1772454812525770800,6.400770751953125,0.04938333185017109,0.00007642623707652092,-0.026689068553689865
1772454812535788800,6.410788818359375,0.003818681505322456,0.023301526740938425,-0.000021006255410611628
1772454812545806600,6.420806640625,-0.01887771894931793,0.03614610300585627,-0.020284827534575015
1772454812555823900,6.430823974609375,-0.04380056328177452,0.04625540908798575,-0.02334774050284177
1772454812565841700,6.440841552734375,-0.05653086551725864,0.02459711950942874,-0.0056352294079959385
1772454812575859700,6.450859619140625,-0.04864683426916599,0.018919658394902943,0.00961637146603316
1772454812585877800,6.460877685546875,-0.009637012395262717,0.023209318412840366,-0.037906153214629736
1772454812595895800,6.470895751953125,0.05148761065304279,0.025859832921624182,-0.04418391830986365
1772454812605913600,6.48091357421875,0.06972703169882297,0.02025105312913656,-0.00861703996406868
1772454812615931000,6.490930908203125,0.09986264224350452,0.014561901576817035,-0.0020643303849734364
1772454812625948700,6.50094873046875,0.13556757735311983,0.010886720195412635,-0.012059051910415291
1772454812635966700,6.510966796875,0.13262450963854788,0.027047289140522478,0.009472688679024576
1772454812645984800,6.52098486328125,0.09592238018512725,0.032317484628409145,0.035512207282800225
1772454812656002800,6.5310029296875,0.061381228157877915,0.030136925718933342,0.04464404663490131
1772454812666020600,6.5410205078125,0.017975801673531532,0.00632686493396759,-0.008994641104806213
1772454812676038000,6.551037841796875,0.016980945417284964,0.003128215023130178,-0.007563037399109453
1772454812686055700,6.5610556640625,-0.02073357594907284,0.036723902893811465,0.0009641871233470737
1772454812696073700,6.57107373046875,-0.03524199377298355,0.06277355929911137,-0.0241202592452988
1772454812706091500,6.581091552734375,-0.029275778844952582,0.038955899729579684,-0.022231358492467553
1772454812716109800,6.59110986328125,0.004049567651748657,0.035887744330614806,0.006792253956012427
1772454812726127900,6.6011279296875,0.03281155175566673,0.03188128516823053,0.018220150089729575
1772454812736145000,6.611144775390625,0.036947628647089004,0.026235388235747812,0.02391414221394807
1772454812746162700,6.62116259765625,0.07066928098499775,0.023322569528967142,0.018921211031172423
1772454812756180700,6.6311806640625,0.10449965439438819,0.048649610748142,0.023748046665731815
1772454812766198500,6.641198486328125,0.08118892143368721,0.025641513995826242,0.006713087772578
1772454812776216800,6.651216796875,0.029507834035158154,0.02105710881501436,-0.014023977041523902
1772454812786235000,6.66123486328125,0.02007774238884449,0.042470337591320274,-0.008892459371965379
1772454812796251600,6.671251708984375,0.012547931405901908,0.05678571706116199,0.022082524606306105
1772454812806269700,6.681269775390625,0.010682137534022331,0.03636062253937125,0.025074838290084153
1772454812816287700,6.691287841796875,-0.007780570873618125,0.035686230409145356,-0.006139069010596722
1772454812826305500,6.701305419921875,0.014891279661655425,0.035643121919780967,0.009821410785149783
1772454812836323800,6.71132373046875,0.05834405241906643,0.030024551385641095,0.011968469283822922
1772454812846342000,6.721341796875,0.06556406680047512,0.027846768955141304,-0.0011301913400180636
1772454812856359700,6.731359619140625,0.07357260121107101,0.03627499008253217,0.02421339915515855
1772454812866376700,6.741376708984375,0.08984744418561458,0.04216930881813168,0.022707433305308222
1772454812876394800,6.751394775390625,0.11685703166425228,0.017089228097349404,0.017961334756761788
1772454812886412800,6.761412841796875,0.132725047403574,0.005881459254026412,0.01952242832733318
1772454812896430800,6.771430908203125,0.14402619361877442,0.028320816207677124,0.029252050909493118
1772454812906449000,6.781448974609375,0.06140110190212726,0.0005155483067035675,0.03335689241243526
1772454812916466700,6.791466796875,0.028006197300553322,-0.004461655583977699,0.006870269361976534
1772454812926483700,6.801483642578125,0.027810382467508315,0.015435323410481214,0.010226192193757743
1772454812936501800,6.811501708984375,0.05700491276979446,0.009626198740303515,0.0036315431690774856
1772454812946519800,6.821519775390625,0.10384031370282172,-0.008377221592515707,-0.012533519288059323
1772454812956537600,6.83153759765625,0.12159575062394141,-0.02158522434234619,0.027835955300182104
1772454812966556000,6.841555908203125,0.10496084216535091,-0.004810761282593012,-0.0033622247084043916
1772454812976573700,6.85157373046875,0.03925181393623352,0.028956337632238864,0.0014085881562903523
1772454812986591000,6.861591064453125,-0.015695581781864164,0.025110768119990825,0.044566579218208786
1772454812996609000,6.871609130859375,-0.056875733432173725,0.007718465422838926,0.07280070352312178
1772454813006626800,6.881626708984375,-0.1328507196098566,0.015451105501502752,0.023353914515301583
1772454813016644900,6.891644775390625,-0.1446750129163265,0.03282134249731898,0.028233010060060768
1772454813026663000,6.901662841796875,-0.08451017481088638,0.032966888447850944,0.023259897822607307
1772454813036681000,6.911680908203125,-0.06031856736242771,0.04305062169730663,0.021118848939612505
1772454813046697700,6.92169775390625,-0.024966098952293396,0.03131751380562782,0.04399899019701406
1772454813056716000,6.931716064453125,0.03676759590506554,0.014477438163757324,0.028552232077065854
1772454813066733800,6.94173388671875,0.05817220298349857,0.014205781615525484,0.03357932125777006
1772454813076752000,6.951751953125,0.03250876941680908,0.01988441177383065,0.03846296511348337
1772454813086770000,6.96177001953125,0.02328793660700321,0.022417291252315043,0.019782686698716134
1772454813096788000,6.9717880859375,0.035842882275581356,0.013076631455123423,0.02282793614612892
1772454813106804700,6.9818046875,0.05934416937232017,0.013220862231403589,0.030189879748877137
1772454813116823000,6.991822998046875,0.055260114929080006,0.018819266760349274,0.00774299707589671
1772454813126840800,7.0018408203125,0.044352351945638656,0.019460925664752722,-0.01798193915337324
1772454813136859000,7.01185888671875,0.057094929140806196,0.01127338142544031,0.0014332294072024524
1772454813146877000,7.021876953125,0.028041268613934515,0.004557955565303564,0.022417090322915462
1772454813156895000,7.03189501953125,0.024686697489023208,0.014947978284955024,-0.0028404475903138515
1772454813166911700,7.041911865234375,0.00820785637497902,0.016274550713598727,-0.013562113417126237
1772454813176930000,7.051929931640625,-0.004019172513484955,0.0165970606662333,-0.004680686895828694
1772454813186947800,7.06194775390625,-0.030634207716584205,0.014395312838256359,0.019955047590937466
1772454813196966000,7.0719658203125,-0.01519172391295433,0.0074903557553887366,0.032510559515096245
1772454813206983700,7.081983642578125,0.015547697743773459,0.02375306990072131,0.022376794845145195
1772454813217002000,7.092001953125,0.015389292311668395,0.023679127881675956,0.034256800394225864
1772454813227018800,7.102018798828125,0.06023264264464378,0.06348375339508057,0.037834330087434496
1772454813237037000,7.112037109375,0.08324702300727367,0.051238750458508724,0.05425015243524685
1772454813247054800,7.122054931640625,0.09648293667733669,0.02379047930166125,0.07367560492781922
1772454813257073000,7.132072998046875,0.10995207458138465,0.0337517552152276,0.047621363678947086
1772454813267090700,7.142090576171875,0.09875906491577624,0.04778963291794061,0.06704783908482641
1772454813277109000,7.15210888671875,0.11215338401794434,0.03646262160912156,0.039488600100483745
1772454813287125800,7.162125732421875,0.12345569927692412,0.024270810164511204,-0.01983363143466413
1772454813297144000,7.17214404296875,0.08428454936146736,0.020092501566559076,-0.019180172494612634
1772454813307161900,7.182161865234375,0.06699731447398662,0.01779547667056322,-0.00944671398755163
1772454813317180000,7.192179931640625,0.041538463568687435,0.01979118053242564,-0.005060096401162445
1772454813327198000,7.202197998046875,0.02110942352414131,0.014126286638528107,0.0005725209246389567
1772454813337216000,7.212216064453125,-0.0011608604729175568,0.013597586589306591,-0.00014645926598459482
1772454813347234000,7.222234130859375,0.011241524982452391,0.030940497186779974,0.024588589143101126
1772454813357250800,7.232250732421875,0.02195113504528999,0.03474310434013605,0.015189824216812848
1772454813367268900,7.242268798828125,0.009624152913689612,0.02834624290987849,-0.007711085833981632
1772454813377287000,7.252286865234375,-0.019068857607245443,-0.014020195915549993,-0.010985467862151562
1772454813387305000,7.262304931640625,0.003988777375221252,0.01086860001683235,-0.003631945027876645
1772454813397323000,7.272322998046875,0.030219197174906728,0.03472702998816967,0.0027580117375589908
1772454813407341000,7.282341064453125,0.06520049418509007,0.03285597541928291,0.007890935912914574
1772454813417357800,7.29235791015625,0.07374912682175636,0.022551877417415378,0.027837818463705477
1772454813427375900,7.3023759765625,0.08489011403918266,0.037769904815405604,0.047863355741277334
1772454813437394000,7.312393798828125,0.07869009035527706,0.01682064028903842,0.03664227075865492
1772454813447412000,7.322411865234375,0.07753682866692542,0.01455444892272353,0.02099014452602714
1772454813457429800,7.3324296875,0.06573825432360172,-0.0016113807193934918,0.005431213002186268
1772454813467448000,7.342447998046875,0.061604515519738196,0.0005642097540199757,0.0035539478882215913
1772454813477464800,7.35246484375,0.06798632551133632,0.005874591121822596,0.047226190348900854
1772454813487483100,7.362483154296875,0.09120470401346684,-0.0019632628969848153,0.04487557210214436
1772454813497501000,7.3725009765625,0.08371405599713325,0.017375936084240675,0.039532347910664976
1772454813507519000,7.38251904296875,0.04784837736785411,0.025208675536513327,0.03383302202420309
1772454813517536800,7.392536865234375,0.011793898168206213,0.028136107290536165,0.039398273202218115
1772454813527555000,7.40255517578125,0.0020838205367326736,0.013631050467491149,0.030402992776595056
1772454813537571800,7.41257177734375,0.004897124391794205,0.003773673319816589,0.06751065255729481
1772454813547590100,7.422590087890625,0.041029345002770425,0.028960137024521826,0.030309962464589623
1772454813557608000,7.43260791015625,0.07864157503843307,0.0020537176594138144,-0.009072492113988846
1772454813567626000,7.4426259765625,0.07412848152816295,-0.020285101529210803,-0.03322342049218714
1772454813577643800,7.452643798828125,0.09682722007036208,-0.033660569800436496,-0.036346137356292454
1772454813587662000,7.462662109375,0.09451602051854133,-0.024697218883037567,0.006158212102483958
1772454813597678800,7.472678955078125,0.060957449787855146,-0.012467998037487268,0.019279742145258932
1772454813607697000,7.48269677734375,0.05451484951972961,-0.003681172730773687,-0.019209033262915908
1772454813617715000,7.49271484375,-0.015639467680454253,0.005800795233249664,-0.000710011432878673
1772454813627733000,7.50273291015625,-0.05632043763697147,0.009598433950543403,0.022534067766088992
1772454813637750800,7.512750732421875,-0.10517536169886589,0.010162351443618536,-0.012539985561463981
1772454813647769000,7.52276904296875,-0.13374153096973895,-0.003505377772450447,-0.05482519411053508
1772454813657785900,7.532785888671875,-0.1333697750478983,-0.00525806665867567,-0.058721964087057855
1772454813667804000,7.542803955078125,-0.13053893553614615,0.009588935469835996,-0.04607420730218291
1772454813677822000,7.552822021484375,-0.07972177149057388,0.014622837983816861,-0.013652750842645764
1772454813687840000,7.562840087890625,-0.006620879444479942,0.007859919720143079,0.0367339676300995
1772454813697857800,7.57285791015625,0.04473755187094211,0.011652882262319326,0.03171592027237639
1772454813707875800,7.582875732421875,0.08068214095532894,0.027954467113316058,0.02446406771428883
1772454813717892900,7.592892822265625,0.09010346477329731,0.00888181011378765,0.03634063919726759
1772454813727911000,7.602910888671875,0.09639993456900119,-0.0013451309986412525,0.04158197391685098
1772454813737929000,7.612928955078125,0.10948387254774569,-0.02442410103008151,0.008080759396590292
1772454813747947000,7.622947021484375,0.07394260356724262,-0.01048851465806365,-0.007077920763287693
1772454813757964800,7.63296484375,0.07245616440176963,-0.004399257872253656,0.007891812695749104
1772454813767982800,7.64298291015625,0.051392918106913564,0.01151464283540845,0.009262991451099514
1772454813778000000,7.652999755859375,0.04122808244526386,-0.00037102526947855945,0.009224668734706938
1772454813788018000,7.663017822265625,0.03420212933123112,0.0038321255087852475,-0.001118500902224332
1772454813798036000,7.673035888671875,0.04214870442152023,0.026868717703223226,0.027218590586818754
1772454813808054000,7.683053955078125,0.04836217210888862,0.046113662529736754,0.015441004232596605
1772454813818071800,7.69307177734375,0.01047346321940422,0.032623043446242804,0.030093963360041377
1772454813828089900,7.70308984375,0.005496259328722953,0.01886953564286232,0.008360745381750165
1772454813838107000,7.71310693359375,-0.0007435118436813354,0.024280016384273767,0.021413100912142543
1772454813848125000,7.723125,-0.005320318239927292,0.02573079971447587,0.03621904037790373
1772454813858143000,7.73314306640625,0.004155366113781929,0.030218612653017042,0.026880170678999272
1772454813868161000,7.7431611328125,0.005268295791745185,0.053320525168627494,0.033295755076035854
1772454813878178800,7.7531787109375,-0.010626607954502106,0.05028831786587834,0.03315764351328835
1772454813888196900,7.76319677734375,0.007907412123680114,0.07440671394765376,0.04562222575098276
1772454813898214000,7.7732138671875,0.03621054654419422,0.04554974503666162,0.05349480402329936
1772454813908232000,7.78323193359375,0.027974048596620556,0.055348231603950256,0.02751675154948607
1772454813918249700,7.793249755859375,-0.012495324435830115,0.013018471527099609,-0.008239292692858726
1772454813928268000,7.80326806640625,-0.06221943254768848,0.0017139643110334873,-0.03444214863218367
1772454813938285800,7.813285888671875,-0.05122925197780132,-0.0003757014445960521,-0.03241433259900659
1772454813948304000,7.823303955078125,-0.03684884444773197,0.031528233946859836,-0.011815762940142303
1772454813958321000,7.83332080078125,0.023351064971089363,0.03361205448359251,-0.006255973388534039
1772454813968339000,7.8433388671875,0.08774842607975006,0.045127720232307905,0.010114219719264655
1772454813978356700,7.853356689453125,0.13600772233605385,0.016937983058393,0.004860792703088372
1772454813988375000,7.863375,0.16553133846223353,0.006343962199240922,-0.0072694430137053125
1772454813998393300,7.873393310546875,0.14623393279612062,0.013673282174021004,-0.012469203613884747
1772454814008411100,7.8834111328125,0.08385375672876834,0.025454320860654113,0.017074925577361136
1772454814018428400,7.893428466796875,0.05371230096518993,0.034890842247754336,0.01118245173897594
1772454814028446200,7.9034462890625,0.00032090251743793486,0.03044292292818427,0.04618029802516103
1772454814038464300,7.91346435546875,-0.05802665703296661,0.06573723141029476,0.07603729255786165
1772454814048482300,7.923482421875,-0.07617781527340411,0.08250964864343405,0.07439460338475182
1772454814058500400,7.933500244140625,-0.03104921825826168,0.05685585968792438,0.03583528349101543
1772454814068518100,7.94351806640625,0.008331775015592575,0.028374007699638604,0.023233411674480883
1772454814078536200,7.9535361328125,0.03406301312148571,0.02898644050955772,0.0016830029171891509
1772454814088553200,7.96355322265625,0.0693254651606083,0.0031302608497440812,0.0017823351058177648
1772454814098571300,7.9735712890625,0.13455927709341048,-0.010393091459572314,-0.0037850714966654775
1772454814108589000,7.983589111328125,0.13982757288515568,-0.018427929355204105,0.014018332752026616
1772454814118607400,7.993607421875,0.13503916956484316,-0.01402881761342287,0.017288787523750213
1772454814128625200,8.003625244140625,0.11133154624104499,-0.008267769868671894,0.021097093765530733
1772454814138642400,8.013642333984375,0.09585691373348236,0.026738223191350698,0.020281046408601105
1772454814148660200,8.02366015625,0.041941199150681494,0.02863485059291124,-0.006230784148350358
1772454814158678300,8.03367822265625,-0.007907996645569801,0.04284866938441992,-0.0077484221696853635
1772454814168696000,8.043696044921875,-0.0050958618342876435,0.05102233122885227,-0.02617752056866884
1772454814178714400,8.05371435546875,0.05184241544008255,0.0534204784117639,-0.0022537885424681004
1772454814188732200,8.063732177734375,0.06641279258430004,0.06477905390262603,0.0013649316776543855
1772454814198749200,8.073749267578124,0.0312619842261076,0.02969195843040943,-0.03246651944397017
1772454814208767200,8.083767333984374,-0.006115852531790733,0.027148995949327945,-0.019135200841724872
1772454814218785300,8.093785400390624,-0.015443068325519562,0.048243221904337406,0.010664601877331733
1772454814228803000,8.103802978515626,-0.019411387434601784,0.0831757113367319,0.030421222553029655
1772454814238821400,8.1138212890625,-0.03236556155383587,0.07716229626610875,-0.005911854392290115
1772454814248839200,8.123839111328126,-0.04765782323181629,0.07244608139917254,0.019961075472924857
1772454814258857200,8.133857177734376,-0.02886076830327511,0.046267245656251905,0.025782712564803658
1772454814268874200,8.143874267578125,0.034306758749485015,0.04524710882827639,0.0028668241405859587
1772454814278892300,8.153892333984375,0.10840542966127395,0.03725917881429195,-0.004830945554096251
1772454814288910000,8.16391015625,0.1532329979032278,0.01783186315819621,-0.0018524777325801551
1772454814298928400,8.173928466796875,0.12777648508548736,-0.013434797243028878,0.006117021575570106
1772454814308946200,8.1839462890625,0.06292904212176799,-0.01980330936163664,-0.0016238931410945952
1772454814318964200,8.193964111328125,0.026273089897632596,-0.02314765135347843,-0.005480824297573417
1772454814328981200,8.203981201171874,0.010340776750445365,-0.011579817026108503,0.011219221819099038
1772454814338999300,8.213999267578124,-0.012705752316117286,0.002899959225207567,0.010971439336799085
1772454814349017000,8.22401708984375,-0.024136077868938444,-0.011647767695784569,0.00279770442713052
1772454814359035100,8.23403515625,-0.012090250766277313,-0.01680383528470993,-0.019412684342544523
1772454814369053200,8.24405322265625,0.02270633732676506,-0.005129471842944622,-0.006757310506794601
1772454814379071200,8.2540712890625,0.05686755012571811,-0.022009148842841386,-0.025178700523357838
1772454814389088300,8.264088134765625,0.06006488486230373,0.0023484628222882747,-0.014402984688058494
1772454814399106300,8.274106201171875,0.07726736407577992,-0.011737784066796302,-0.0248132282118313
1772454814409124000,8.2841240234375,0.090779172077775,-0.012094634680449962,-0.006429010134190321
1772454814419142100,8.29414208984375,0.0932797567218542,0.0094384210832417,0.002614694276731461
1772454814429160400,8.304160400390625,0.06332359439730643,0.04492167626619339,0.0016846468850038945
1772454814439178200,8.31417822265625,0.07570259897708892,0.03686214232072234,0.010783168489392847
1772454814449195300,8.3241953125,0.07771803045272827,0.005799772319942713,0.027453623185399918
1772454814459213300,8.33421337890625,0.06369418127536773,0.0009184300191700458,0.011381773703359067
1772454814469231000,8.344231201171874,0.06745850224494934,0.01847030719220638,0.01738974541388452
1772454814479249200,8.354249267578124,0.07469137610793113,0.033556671034544704,0.016249964261613785
1772454814489267500,8.364267333984374,0.10845277593433857,0.029729660092294215,0.0014162965387105942
1772454814499285200,8.37428515625,0.09274667275846003,0.01378828685581684,0.0055991169149987394
1772454814509302000,8.384302001953126,0.04706336447000503,-0.0020469956576824187,-0.01034749875217676
1772454814519320300,8.3943203125,-0.0011170213311910628,-0.005549743081629276,-0.008890322213806211
1772454814529338400,8.40433837890625,-0.04624854095578193,0.0020347206979990005,0.004558667951356619
1772454814539356200,8.414356201171875,-0.06528934151232242,0.0019867899030447003,0.006917834830749779
1772454814549374500,8.42437451171875,-0.1319616618156433,-0.015692951433360577,-0.010109744473546742
1772454814559392300,8.434392333984375,-0.09217033417522907,-0.002208323699235916,-0.03307455007340759
1772454814569409000,8.444408935546875,-0.0790980866342783,-0.0016384148567914962,-0.018296813788823783
1772454814579427300,8.45442724609375,-0.048287937828898425,-0.007265753219276666,-0.03050627048797905
1772454814589445400,8.4644453125,-0.03356441594958305,-0.02199628936126828,-0.0386208408226259
1772454814599463200,8.474463134765625,0.02182838544845581,-0.011791560080647467,-0.008671966755390167
1772454814609481200,8.484481201171874,0.09756021052002906,0.005286708231270313,0.007951726189441979
1772454814619499300,8.494499267578124,0.12425474070012568,0.016635054589062927,0.02516744847698137
1772454814629516300,8.504516357421876,0.09216682704389095,-0.028058950401097533,0.018189060831721872
1772454814639534300,8.514534423828126,0.06686345896124839,-0.024685090053826568,0.04068573746317997
1772454814649552400,8.524552490234376,0.02116962927877903,0.006400222431123257,0.065483274915535
1772454814659570200,8.534570068359375,-0.007231120297312736,0.01869651716351509,0.06134381875693798
1772454814669588200,8.544588134765625,0.004655716851353645,0.03146422879993915,0.03493026094269007
1772454814679606300,8.554606201171875,0.01764437776207924,0.04443418501019478,0.000044569794088602064
1772454814689623300,8.564623291015625,0.05012158299684524,0.06925590705573559,0.0039630036131478846
1772454814699641300,8.574641357421875,0.09672142160832882,0.061723027332872146,0.022192907911911607
1772454814709659400,8.584659423828125,0.16608663425743578,0.06494052807465195,0.017745445250067857
1772454814719677200,8.59467724609375,0.19369068049788474,0.07196779636293649,0.04692198323793709
1772454814729695200,8.6046953125,0.17970073359012603,0.06131956109851598,0.06266076484071091
1772454814739713300,8.61471337890625,0.17326339401900767,0.0658548664405942,0.06121745243091136
1772454814749730300,8.624730224609374,0.14620821383297442,0.04966463300958276,0.050618152608443046
1772454814759748000,8.634748046875,0.08462006492614746,0.04767798923701048,0.03953521572118625
1772454814769766400,8.644766357421876,0.01433773743212223,0.04294000092968345,0.01910487876869738
1772454814779784200,8.6547841796875,-0.0240595055013895,0.04273088822364807,0.05213887763600796
1772454814789802200,8.66480224609375,-0.009082885643839836,0.030268735405057666,0.05226540835881605
1772454814799820300,8.6748203125,0.016684592819213865,-0.010769523556530476,0.013794479134585707
1772454814809837300,8.68483740234375,0.06368132179379463,-0.03872472132220864,0.007184248948283493
1772454814819855000,8.694855224609375,0.07851765639781952,-0.033808015447109936,0.010026121310703455
1772454814829873400,8.704873291015625,0.04683481641113758,-0.046011371199041605,-0.004885835812799632
1772454814839891200,8.71489111328125,0.0192798700094223,-0.04396013775765895,0.006153481128439307
1772454814849909200,8.7249091796875,-0.007329904496669769,-0.03402662663385272,0.01388009332511574
1772454814859927300,8.73492724609375,-0.04214461276829243,-0.010474632263183592,0.04022327105058357
1772454814869944300,8.7449443359375,-0.06294599325656891,-0.0009613923780620098,0.04205160072259605
1772454814879962000,8.754962158203124,-0.07534720966815948,0.0012852175049483776,0.016740670388005672
1772454814889980400,8.76498046875,-0.06665244655907154,0.018394611607491968,0.013299663088656962
1772454814899998200,8.774998291015624,-0.007924363258481025,0.024553426498174664,0.03488866855697706
1772454814910016300,8.785016357421876,0.0524807133436203,0.029062282224744558,0.020194171842746435
1772454814920034000,8.795033935546876,0.10408522837460041,0.016245324619114397,-0.011080872794333846
1772454814930051300,8.80505126953125,0.15641279698312283,0.018487258327007292,0.00033584435824304815
1772454814940069000,8.815069091796875,0.16365794580578802,0.048897448029369114,0.008089344561845064
1772454814950087400,8.82508740234375,0.11641045694053172,0.04519610929340124,0.008784140159282833
1772454814960105200,8.835105224609375,0.06889993322491646,0.03574263677150011,-0.04389772177962586
1772454814970123300,8.845123291015625,0.019109774139523503,0.03360430956855416,-0.03359329498419538
1772454814980141000,8.85514111328125,0.022296587482094763,0.030041356389969586,-0.023893665681499986
1772454814990158300,8.865158447265625,-0.025454759252071378,0.02186564871892333,-0.009446092933043836
1772454815000175900,8.87517578125,-0.017639701586961744,0.0177690270550549,-0.0068410798001103095
1772454815010194200,8.885194091796874,-0.02140752968788147,0.010272972211241722,0.015298088630568234
1772454815020212000,8.8952119140625,-0.010274141255021095,0.034561464162915945,0.03810768540240824
1772454815030230000,8.90522998046875,-0.0027998598515987395,-0.0006523264288902282,0.02690179798891768
1772454815040247800,8.915247802734376,0.059632923185825346,-0.05322729392722249,0.014958992869313806
1772454815050265000,8.92526513671875,0.11238836181759834,-0.048240591555833816,0.01749019184736535
1772454815060283000,8.935282958984375,0.09371990170478821,0.011884352930635214,0.04707795925093815
1772454815070301000,8.945301025390625,0.08304010225832462,-0.013248042499274014,0.029840774050261823
1772454815080319000,8.955319091796875,0.04723112225234508,-0.019421032045781612,0.04540723129343241
1772454815090337000,8.9653369140625,0.013619944551587104,-0.0038635435603559015,0.05424914778824895
1772454815100354800,8.975354736328125,0.023138299003243445,-0.0010746434941887855,0.045565417529828844
1772454815110372000,8.9853720703125,0.04292728757858276,-0.010566548330336809,0.04073803390599787
1772454815120390000,8.995389892578125,0.06748714381754398,-0.00687909198924899,0.07330052453773096
1772454815130408000,9.005407958984375,0.09043664225041866,0.017877894257009027,0.06985261257356032
1772454815140426000,9.015426025390624,0.09731529584825038,-0.02193418391048908,0.07800939634842798
1772454815150444000,9.025444091796874,0.051851183268427845,0.021866379371285438,0.019563344859611243
1772454815160461800,9.0354619140625,-0.0012976385951042175,0.03007818126901984,-0.01788677168320864
1772454815170479000,9.04547900390625,-0.06566402004361152,0.030514819120615717,-0.02321766611607745
1772454815180497000,9.055496826171876,-0.08528934248983859,0.019530776030570268,-0.004053257446177304
1772454815190515000,9.065514892578125,-0.06436813501417636,0.019360972421616315,0.007119293953292072
1772454815200533000,9.075532958984375,-0.04924947633743286,0.007490794146806002,-0.0030235125396400686
1772454815210551000,9.085551025390625,-0.012656067955493927,0.0012010463528335095,-0.04044769092360511
1772454815220568800,9.09556884765625,0.040891982358694075,-0.0062668053098022935,-0.043768505909387016
1772454815230586000,9.105586181640625,0.08363280745446681,-0.008173661844432353,-0.045398518264014275
1772454815240604000,9.11560400390625,0.08981763356924057,-0.005541705905646085,-0.029313206512201574
1772454815250622000,9.1256220703125,0.06630640960037708,-0.01860620853155851,-0.04604828740963712
1772454815260640000,9.135639892578125,0.0854763894945383,-0.017610913883894682,-0.03982364074112847
1772454815270658000,9.145657958984375,0.085350132766366,0.009025310237705707,-0.01126865045139566
1772454815280675800,9.15567578125,0.04937456402182579,0.0082772683493793,-0.03354121773708611
1772454815290693000,9.165693115234374,0.0062216509938240044,-0.0017668635420501231,-0.08248959223609417
1772454815300711000,9.1757109375,-0.009646364745497703,0.011940467032045125,-0.13573559086378664
1772454815310729000,9.18572900390625,-0.024516017097234725,0.01827580753341317,-0.13102175061702728
1772454815320747000,9.1957470703125,-0.03923427827954292,0.03849105869680643,-0.030841256329696625
1772454815330765000,9.20576513671875,-0.05820552073121071,0.031477818933874364,0.02210572281880304
1772454815340782800,9.215782958984375,0.005447744011878967,0.05838365377709269,0.01887609324781224
1772454815350800100,9.225800048828125,0.09852291807234287,0.029410072749108073,0.01816030966127291
1772454815360818000,9.23581787109375,0.1434118611127138,0.005260258615761995,0.023885865967534482
1772454815370836000,9.2458359375,0.14855448469817636,0.010624562127888202,0.014096165494900196
1772454815380854000,9.25585400390625,0.1555032809227705,0.008541910634934901,-0.009600552842393516
1772454815390872000,9.2658720703125,0.12101882751882076,0.00993818729892373,-0.03384233784181997
1772454815400890000,9.27589013671875,0.0695645346134901,-0.002579056707769632,-0.031208646603673694
1772454815410907100,9.2859072265625,0.04337970752120018,0.008123100700974464,-0.02587101190276444
1772454815420925000,9.295925048828124,-0.0012654898911714553,0.00838277455046773,0.006564326951652765
1772454815430943000,9.30594287109375,-0.016419219881296156,0.010872253278642892,0.04282956282515078
1772454815440960800,9.315960693359376,-0.03019990795254707,-0.004982026196271181,0.044053021939191965
1772454815450979000,9.32597900390625,-0.07662205190956592,0.006238748259097337,0.020032679404411464
1772454815460997000,9.3359970703125,-0.05839607486724853,-0.0016084581099450588,0.04229545594844967
1772454815471014100,9.34601416015625,-0.030581016224622726,-0.0025524609617888928,0.029971816551405933
1772454815481032000,9.356031982421875,-0.018223054432868955,-0.01738996460959315,0.013546988913230596
1772454815491050000,9.366050048828125,-0.018893501040339468,-0.012666735479980706,-0.009615056291781365
1772454815501067800,9.37606787109375,0.006615618747472763,0.015252368059009312,-0.033518129122443494
1772454815511086000,9.386086181640625,0.032635026144981386,0.014308803598582744,-0.027974614852201193
1772454815521104100,9.396104248046875,0.0492781179100275,0.016334902598708866,-0.014102302974741906
1772454815531121000,9.406120849609374,0.0591904401153326,0.002810381245613098,-0.021688483787421137
1772454815541139000,9.416138916015624,0.052397126713395116,0.022490064227581024,-0.025919856013171372
1772454815551157000,9.426156982421874,0.05419862317740917,0.021305238357186316,-0.02731065278444439
1772454815561175000,9.436175048828124,0.07173486438989639,0.016279519149661064,0.0007246427464298904
1772454815571193000,9.446193115234376,0.07431026783585548,0.028493104034662244,0.04412351162582635
1772454815581211100,9.456211181640626,0.06694412298202514,0.03852320740073919,0.03459006920289248
1772454815591228000,9.466227783203125,0.04204173691570758,0.044241292786598205,0.03610869360491633
1772454815601246000,9.476245849609375,0.05053425545096397,0.02797346407473087,0.03492257082657888
1772454815611264000,9.486263916015625,0.06489011306166649,0.01618248851597309,0.0042862076855264605
1772454815621282000,9.496281982421875,0.06696808837950229,0.018926088135689495,-0.014578195124492049
1772454815631300000,9.506300048828125,0.07563304087221621,0.02039908329769969,-0.023185005955491212
1772454815641318100,9.516318115234375,0.04497252967059612,0.012224252409487962,-0.000246832634229213
1772454815651335000,9.5263349609375,0.04749123449325561,-0.008301818268746137,0.06153020817451179
1772454815661353200,9.536353271484375,0.022360884889960287,0.0011024082839488983,0.06784909073142334
1772454815671371000,9.54637109375,-0.020565818166732787,-0.0018365677773952483,0.05588648493280634
1772454815681389000,9.55638916015625,-0.03097206136882305,0.0013305179513990878,0.0725946778233163
1772454815691406800,9.56640673828125,0.023055881416797635,-0.010801526129990816,0.06203945460459217
1772454815701425200,9.576425048828124,0.06061550448238849,-0.004427607183903456,0.06759111564867198
1772454815711442000,9.58644189453125,0.0742354490339756,0.0012453238859772681,0.07486384659800678
1772454815721460200,9.596460205078126,0.05510813923776149,-0.001993950296193361,0.06675239980220794
1772454815731478000,9.60647802734375,0.05066986452937126,-0.00039718262404203413,0.05940408286601305
1772454815741496000,9.61649609375,0.026132804644107818,-0.015599866322427988,0.07020453128376976
1772454815751513900,9.626513916015625,0.019461656317114828,-0.009806231482326984,0.045138424289412796
1772454815761532200,9.6365322265625,0.005290507623553276,-0.011930676290392874,0.03427817197581753
1772454815771549000,9.646548828125,0.0034060090512037277,-0.007766688478738069,0.008153349708765745
1772454815781567000,9.65656689453125,0.06732230864465236,0.011533055274933576,0.02035378285124898
1772454815791585000,9.6665849609375,0.09317395825982093,0.03500950019136071,0.023646650384180245
1772454815801603000,9.67660302734375,0.08291676813960075,0.01249488604441285,0.026681031377706676
1772454815811620900,9.686620849609374,0.08622866916656494,-0.003485065636783838,0.029858273174334315
1772454815821639200,9.69663916015625,0.08604805190265179,-0.002712473829090595,0.0030645569360814987
1772454815831656000,9.706656005859376,0.09220599001049995,0.01177665477246046,0.006173537535779178
1772454815841674000,9.716674072265626,0.07273498134315014,0.01689019839391112,-0.014841449170559644
1772454815851692000,9.726692138671876,0.08057166631817818,0.04800298340767622,-0.01791470086975023
1772454815861710000,9.7367099609375,0.05652209768891334,0.055069853053987025,0.026883769141882657
1772454815871727900,9.746727783203125,0.04351297851204872,0.05484583503976464,-0.001734148582536727
1772454815881746200,9.75674609375,0.04776712882518768,0.040867140178382395,-0.018201098329387603
1772454815891763000,9.766762939453125,0.08555354638397693,0.03572320141866803,-0.0042846367829479275
1772454815901781000,9.776781005859375,0.16991817524433134,0.02657879484593868,0.021499591885507107
1772454815911799000,9.786799072265625,0.2123269919067621,0.008971095832437275,0.007270758187957108
1772454815921817000,9.796817138671875,0.21335399686694145,-0.0063040685802698134,-0.026735775505937635
1772454815931835000,9.8068349609375,0.2144055517464876,0.004007920467108488,-0.006056012103334069
1772454815941853000,9.81685302734375,0.18432839339077473,0.004840133507549763,0.04022420263234526
1772454815951870000,9.826869873046874,0.07045242336392402,-0.006672463501244783,0.021338062914554028
1772454815961888000,9.836887939453124,-0.08964870674312114,0.006188479376584291,-0.02108863646443933
1772454815971906000,9.846906005859376,-0.17749065632522104,0.005293137972056865,0.001554243704676628
1772454815981924000,9.856924072265626,-0.24547698183655736,0.023499679661542174,0.026508122496213763
1772454815991942000,9.86694189453125,-0.2530214058667421,0.04204568243846297,0.009293057795800268
1772454816001959700,9.876959716796875,-0.20350129589438437,0.028843671038001773,-0.015132742001023143
1772454816011976700,9.886976806640625,-0.10903612878024578,0.038124125080555675,-0.028895072431676088
1772454816021994500,9.896994384765625,-0.04855623337626457,0.05151479092091322,-0.0057984206130728124
1772454816032012800,9.9070126953125,-0.017476619979739188,0.03689779815599322,0.027613599520083514
1772454816042030600,9.917030517578125,-0.018424129962921143,0.03718275257721543,0.016819142451696096
1772454816052048600,9.927048583984375,-0.004222586131095886,0.035251053862273694,0.031106921528559175
1772454816062066400,9.93706640625,0.03853402105569839,0.05564706842005253,0.08650931273885071
1772454816072083700,9.947083740234374,0.05368073678314685,0.0561667083799839,0.09189166336432099
1772454816082101500,9.9571015625,0.058571431434154504,0.03973448288664221,0.029208248300384727
1772454816092119800,9.967119873046874,0.06821779617965221,0.03575418107882142,-0.008830682714749127
1772454816102137600,9.9771376953125,0.10319558605849742,0.02005932994931936,-0.011565021315775812
1772454816112155600,9.98715576171875,0.10645663368105887,0.018815905759483574,-0.025419633139763025
1772454816122173400,9.99717333984375,0.13368132521510123,0.022558599419146775,-0.05883492294223979
1772454816132190700,10.007190673828125,0.1884820059388876,0.008551993637531995,-0.07337148914840072
1772454816142208500,10.01720849609375,0.18232874400615692,-0.007146949145197868,-0.06645120663223787
1772454816152226600,10.0272265625,0.15715923143625257,0.024987434001266955,-0.06752232472877949
1772454816162244600,10.03724462890625,0.07551321388483047,0.023462416391074655,-0.0824874916105531
1772454816172262700,10.0472626953125,0.0021913725644350053,0.008432897302508353,-0.07861090590553357
1772454816182280400,10.057280517578125,-0.04546878875494003,-0.0023097382470965385,-0.05403155951481312
1772454816192297700,10.067297607421875,-0.05265840799808502,0.008790624698996543,-0.03615881635695695
1772454816202315500,10.0773154296875,-0.03348199836313724,0.006017798984795809,0.025951420195214448
1772454816212333600,10.08733349609375,-0.03820610427558422,0.01364361768811941,0.04237675929004326
1772454816222351600,10.0973515625,-0.04023322618901729,0.015691051737219096,-0.0029690058734267947
1772454816232369700,10.10736962890625,-0.04614449605941772,0.03403846320211887,0.004533296048082411
1772454816242387500,10.117387451171876,-0.05985737959146499,0.02997004471942782,0.03460464571751654
1772454816252404700,10.12740478515625,-0.04339490509033203,0.0343707638964057,0.021793460265547036
1772454816262422500,10.137422607421875,-0.04168985473811626,0.0217263863787055,0.021938531292043626
1772454816272440600,10.147440673828125,-0.00782265644967556,0.05438713148683309,0.054688799580838526
1772454816282458600,10.157458740234375,0.02177519395649433,0.07264116557985544,0.11301524327797814
1772454816292476700,10.1674765625,0.046669396716356275,0.06380436365157366,0.0866631881263107
1772454816302494500,10.177494384765625,0.04269815499782562,0.051007572051137685,0.04878156656473875
1772454816312511700,10.18751171875,0.06282149009406567,0.043400750309228894,0.026289219048526137
1772454816322529500,10.197529541015625,0.1009831707060337,0.05683569368273019,0.030359518961049613
1772454816332547600,10.207547607421875,0.13985562993586062,0.03867532922253013,0.032830347787681964
1772454816342565600,10.217565673828124,0.17955226503014562,0.035339170537143944,0.021664609721489248
1772454816352583700,10.227583740234374,0.18337270010113715,0.025429332549870013,0.044519306010380386
1772454816362600400,10.237600341796876,0.13217735039293765,0.02631678290888667,0.04172607682896778
1772454816372618800,10.24761865234375,0.1028828668475151,0.018216770822554827,0.01115152687774971
1772454816382636500,10.257636474609376,0.07256546999514102,0.03416296636462211,-0.05819028662946075
1772454816392654600,10.267654541015625,0.02106149272918701,0.03477554530501365,-0.04874468688676133
1772454816402672600,10.277672607421875,0.02116904475688934,0.018830080415308474,-0.040050015109218656
1772454816412690700,10.287690673828125,0.0032388357907533645,0.030100685361772773,-0.02239080510418862
1772454816422707500,10.29770751953125,0.035730654072761533,0.006259644916653633,-0.007567019454482942
1772454816432725800,10.307725830078125,0.037056934240460394,0.012419482720643282,-0.058664333881996565
1772454816442743600,10.31774365234375,-0.006599252134561538,0.029918752923607825,-0.02889010399561375
1772454816452761600,10.32776171875,-0.08235036642849444,0.023262802165746686,-0.011629446587804704
1772454816462779600,10.337779541015625,-0.12131050394177437,0.02547346395254135,-0.010384159234445542
1772454816472797700,10.347797607421874,-0.09891220965087413,0.04934460727497935,0.008588398391474038
1772454816482814500,10.357814453125,-0.07904723322987556,0.0540185904353857,0.0060710452756844455
1772454816492832800,10.367832763671874,-0.036784547039866444,0.05580561998263001,0.00777878077533096
1772454816502850600,10.3778505859375,0.015507950255274771,0.04231500089913606,0.02829513377714902
1772454816512868600,10.38786865234375,0.05705401260852813,0.04440539730712771,0.028309600693918763
1772454816522886400,10.397886474609376,0.08850538192689418,0.04756459199041128,0.013159615297149867
1772454816532904700,10.40790478515625,0.10067921932339667,0.03979951094686985,-0.007126344748586416
1772454816542921500,10.41792138671875,0.11880115146934986,0.06129968735426664,-0.016183200902026147
1772454816552939800,10.427939697265625,0.17662264131903646,0.05612666863054037,0.03325385216306895
1772454816562957600,10.43795751953125,0.17868308098018168,0.05309343841448426,0.016107779311947523
1772454816572975600,10.4479755859375,0.17109364876449107,0.025194354750216006,-0.011729819956049322
1772454816582993400,10.457993408203125,0.11296411587893962,0.02982420650795102,-0.03575646436745301
1772454816593011700,10.46801171875,0.048960138002038,0.011801789213716983,-0.02748336073653772
1772454816603028500,10.478028564453124,0.014161796343326568,0.0035797581829130646,-0.013476152166724204
1772454816613046500,10.488046630859374,-0.0436053329706192,-0.007892945206910371,-0.019660430292226375
1772454816623064600,10.498064697265624,-0.04940320559442043,-0.004173924683779478,-0.005021773684769869
1772454816633082600,10.50808251953125,-0.03393383378386497,0.01669891360551119,0.011913177166320383
1772454816643100700,10.5181005859375,-0.04593231461346149,0.00556157964989543,0.007697313036955892
1772454816653118700,10.52811865234375,-0.012443886509537696,-0.0016419219881296156,-0.007253514792211354
1772454816663135500,10.538135498046875,-0.024591420421004293,0.012075199327617882,-0.019631953116413206
1772454816673153500,10.548153564453125,-0.0729372259169817,0.023563684808462857,-0.013000734941009432
1772454816683171600,10.558171630859375,-0.09762743053734302,0.035169805319607256,-0.000959949339646846
1772454816693189600,10.568189697265625,-0.07586977223753928,0.01765431463420391,0.007665146066714078
1772454816703207700,10.578207763671875,-0.010592705684900283,0.004604278925061225,0.02101038359645754
1772454816713225700,10.588225830078125,0.046371290552616115,-0.0032445348791778086,0.025715711743198335
1772454816723242500,10.598242431640625,0.08673895677626133,0.013645225123316049,0.003778641755878925
1772454816733260500,10.608260498046874,0.09067103552818298,0.04094824259057641,-0.02116597601696849
1772454816743278600,10.618278564453124,0.07338730777204036,0.07629749613031744,0.03770410957019776
1772454816753296600,10.628296630859374,0.05448094725012779,0.07051891272887587,0.07387103616837412
1772454816763314700,10.638314697265624,0.06112286948263645,0.05548603263944387,-0.02078815568052232
1772454816773332500,10.64833251953125,0.09266308612823486,0.07396130826771259,-0.07192547332486138
1772454816783349500,10.658349609375,0.08252338490784168,0.08445844462364911,0.01378976642685011
1772454816793367600,10.668367431640625,0.11692600524723529,0.06610007337331772,0.03341974678188562
1772454816803385900,10.6783857421875,0.18205226515233516,0.03899199395626783,-0.05119949616035446
1772454816813403600,10.688403564453125,0.0802086782246828,0.024018881230056285,-0.05816661349292844
1772454816823421700,10.698421630859375,0.0020171850413084028,0.1692563503347337,0.16668196980208158
1772454816833439500,10.708439453125,-0.12437398316562175,0.18613500442132352,0.20976338849645107
1772454816843456500,10.71845654296875,-0.11733341700434684,0.010806932957470417,-0.05584182380717247
1772454816853474600,10.728474609375,0.02186053415238857,-0.015600450844317673,-0.18945673272255806
1772454816863492600,10.73849267578125,0.14273966093957424,0.02487082188427448,-0.03134686776427552
1772454816873510700,10.7485107421875,0.1730839457988739,0.0019967267751693726,0.04184115457599982
1772454816883528700,10.75852880859375,0.11459200934171676,-0.08563990949317812,-0.02936427911231294
1772454816893546500,10.76854638671875,0.02673252410292625,-0.0923508053086698,-0.05690645736400038
1772454816903563800,10.778563720703126,-0.11534487353563308,0.0035723055288195606,-0.06290116773415357
1772454816913581600,10.78858154296875,-0.23140344829857348,0.18478768146559596,-0.002644705822505057
