time,seconds_elapsed,z,y,x
1772454806204509700,0.079509765625,-0.01139548234641552,0.027720004320144653,0.05460425093770027
1772454806214527500,0.089527587890625,-0.009927015751600266,0.013820700347423553,0.03533335402607918
1772454806224545800,0.0995458984375,-0.00222564535215497,-0.0067505300976336,0.008698107674717903
1772454806234563600,0.1095634765625,-0.0008053816854953766,-0.023053869605064392,-0.013584294356405735
1772454806244580600,0.11958056640625,0.00036215235013514757,-0.025619924068450928,-0.031139809638261795
1772454806254598700,0.1295986328125,-0.005152455065399408,-0.018006745725870132,-0.03705761954188347
1772454806264616700,0.13961669921875,-0.011671124026179314,-0.014473901130259037,-0.03307186812162399
1772454806274634500,0.149634521484375,-0.016720743849873543,-0.012195566669106483,-0.024517260491847992
1772454806284652800,0.15965283203125,-0.01775258406996727,0.004908771254122257,-0.01215044129639864
1772454806294670600,0.169670654296875,-0.025968436151742935,0.01269479002803564,-0.003732455661520362
1772454806304688600,0.179688720703125,-0.0280790813267231,0.010474263690412045,0.005362232215702534
1772454806314705700,0.18970556640625,-0.027338987216353416,0.0006693031173199415,0.010647541843354702
1772454806324723700,0.1997236328125,-0.03251146897673607,-0.011564175598323345,0.007556936237961054
1772454806334741500,0.209741455078125,-0.02692495658993721,-0.02143917791545391,0.000747766112908721
1772454806344759800,0.219759765625,-0.026760905981063843,-0.02328522503376007,-0.006791663356125355
1772454806354777600,0.229777587890625,-0.023471102118492126,-0.017825478687882423,-0.009096629917621613
1772454806364795600,0.239795654296875,-0.02135140262544155,-0.012267800979316235,-0.006536238826811314
1772454806374813400,0.2498134765625,-0.015608029440045357,-0.014546134509146214,-0.011847115121781826
1772454806384830700,0.259830810546875,-0.0086837662383914,-0.015222585760056973,-0.015909628942608833
1772454806394848500,0.2698486328125,-0.003707649651914835,-0.008539383299648762,-0.021954739466309547
1772454806404866800,0.27986669921875,-0.006534507963806391,-0.003872103989124298,-0.027782835066318512
1772454806414884600,0.289884521484375,-0.012736476957798004,-0.0022137537598609924,-0.028819071128964424
1772454806424902700,0.299902587890625,-0.014698515646159649,-0.002086491324007511,-0.029315205290913582
1772454806434920400,0.30992041015625,-0.02177906408905983,0.00796614307910204,-0.019782952964305878
1772454806444938800,0.319938720703125,-0.021824870258569717,-0.005681226029992104,-0.012403333559632301
1772454806454955500,0.32995556640625,-0.02596350945532322,-0.003956545144319534,-0.005894307512789965
1772454806464973600,0.3399736328125,-0.025203663855791092,-0.007151386700570583,-0.0006722030811943114
1772454806474991600,0.34999169921875,-0.024548524990677834,-0.001872202381491661,0.007845651358366013
1772454806485009700,0.360009765625,-0.025345657020807266,0.0019106112886220217,0.006629227660596371
1772454806495027500,0.37002734375,-0.026052726432681084,-0.0008883711416274309,0.005780212115496397
1772454806505045800,0.380045654296875,-0.02726508304476738,0.003314546076580882,0.0018843095749616623
1772454806515063600,0.3900634765625,-0.026103943586349487,0.009411053732037544,0.008187745697796345
1772454806525080600,0.40008056640625,-0.028953615576028824,0.008002790622413158,0.02194855734705925
1772454806535098600,0.4100986328125,-0.03164607286453247,-0.0022290744818747044,0.03133486956357956
1772454806545116700,0.42011669921875,-0.025350315496325493,-0.011494169943034649,0.04631580039858818
1772454806555134500,0.430134521484375,-0.013097112067043781,-0.018193351104855537,0.06283911317586899
1772454806565152800,0.44015283203125,-0.008427571505308151,-0.02972717396914959,0.07106253504753113
1772454806575170600,0.450170654296875,0.00088789954315871,-0.03684553876519203,0.06373085081577301
1772454806585188600,0.460188720703125,0.011743392795324326,-0.03278808295726776,0.058846134692430496
1772454806595205600,0.47020556640625,0.01408803928643465,-0.02874353714287281,0.060405947268009186
1772454806605223700,0.4802236328125,-0.004079427104443312,-0.015307008288800716,0.05313548445701599
1772454806615241500,0.490241455078125,-0.008937831968069077,-0.013983417302370071,0.030178504064679146
1772454806625259500,0.500259521484375,-0.013734095729887486,-0.019092442467808723,0.0032909694127738476
1772454806635277600,0.510277587890625,-0.013294939883053303,-0.020600058138370514,-0.0153889749199152
1772454806645295600,0.520295654296875,-0.016352472826838493,-0.01674509048461914,-0.019549516960978508
1772454806655313700,0.530313720703125,-0.01615939289331436,-0.014466222375631332,-0.014939850196242332
1772454806665330700,0.54033056640625,-0.016600456088781357,-0.007257089018821716,0.00005363073432818055
1772454806675348500,0.550348388671875,-0.012300781905651093,-0.004204573575407267,0.02263510599732399
1772454806685366500,0.560366455078125,-0.012474286369979382,-0.0049308426678180695,0.03556223213672638
1772454806695384600,0.570384521484375,-0.015973946079611778,-0.019833358004689217,0.03446580842137337
1772454806705402600,0.580402587890625,-0.018046820536255836,-0.0227289367467165,0.02300739474594593
1772454806715420700,0.590420654296875,-0.01571975089609623,-0.02314705401659012,0.017074937000870705
1772454806725438700,0.600438720703125,-0.01562054455280304,-0.03672365844249725,0.011250237002968788
1772454806735455500,0.61045556640625,-0.016129475086927414,-0.040641169995069504,0.008942341431975365
1772454806745473500,0.6204736328125,-0.02135797217488289,-0.027810292318463326,0.006344679277390242
1772454806755491800,0.630491943359375,-0.028326399624347687,-0.006901814602315426,0.0013888031244277954
1772454806765509600,0.640509521484375,-0.03750680387020111,0.010992488823831081,0.0005266081425361335
1772454806775527700,0.650527587890625,-0.05001593753695488,0.007179640233516693,0.0033764569088816643
1772454806785545500,0.66054541015625,-0.052910927683115005,-0.0005865897983312607,0.014625218696892262
1772454806795563800,0.670563720703125,-0.05222915858030319,-0.012026464566588402,0.03137730062007904
1772454806805580500,0.68058056640625,-0.05614737793803215,-0.03186255693435669,0.04980587214231491
1772454806815598800,0.690598876953125,-0.0618036612868309,-0.04289443418383598,0.062107279896736145
1772454806825616600,0.70061669921875,-0.05573432147502899,-0.03481839969754219,0.048863645642995834
1772454806835634700,0.710634765625,-0.05433962494134903,-0.021600332111120224,0.029619108885526657
1772454806845652500,0.720652587890625,-0.050326328724622726,-0.011752530001103878,0.010393763892352581
1772454806855670800,0.7306708984375,-0.0522611141204834,-0.006445649079978466,-0.0005624808254651725
1772454806865687600,0.7406875,-0.06062592938542366,-0.005511343479156494,-0.00909181497991085
1772454806875705600,0.75070556640625,-0.07171506434679031,0.013492175377905369,-0.014293234795331955
1772454806885723600,0.7607236328125,-0.07992185652256012,0.04931163787841797,-0.022143946960568428
1772454806895741700,0.77074169921875,-0.08658615499734879,0.07596775144338608,-0.02178788185119629
1772454806905759500,0.780759521484375,-0.0900830626487732,0.0872420072555542,-0.013786162249743938
1772454806915777800,0.79077783203125,-0.08756637573242188,0.0666927918791771,0.009032866917550564
1772454806925795600,0.800795654296875,-0.08972518146038055,0.03800256922841072,0.035923197865486145
1772454806935812600,0.8108125,-0.0726708248257637,0.012171237729489803,0.06952270120382309
1772454806945830700,0.82083056640625,-0.04673771932721138,0.012380235828459263,0.07255859673023224
1772454806955848700,0.8308486328125,-0.05424570292234421,0.022394787520170212,0.05688190087676048
1772454806965866500,0.840866455078125,-0.07987640798091888,0.06613404303789139,0.030333634465932846
1772454806975884800,0.850884765625,-0.07200384140014648,0.119379423558712,0.003908952232450247
1772454806985902600,0.860902587890625,-0.044392138719558716,0.14954344928264618,-0.007647964637726545
1772454806995920600,0.870920654296875,-0.013586822897195816,0.1444685310125351,-0.0031711910851299763
1772454807005938000,0.88093798828125,0.006371662486344576,0.13984976708889008,0.01880350150167942
1772454807015955700,0.890955810546875,0.023144517093896866,0.1250508427619934,0.058004435151815414
1772454807025973800,0.900973876953125,0.035773180425167084,0.07690542191267014,0.10203460603952408
1772454807035991600,0.910991455078125,0.053117819130420685,0.018136383965611458,0.14543773233890533
1772454807046009900,0.921009765625,0.06475947052240372,-0.03036423772573471,0.16783277690410614
1772454807056027600,0.931027587890625,0.06720078736543655,-0.036324393004179,0.16899363696575165
1772454807066045700,0.941045654296875,0.06168174371123314,-0.024187104776501656,0.1514330506324768
1772454807076062700,0.951062744140625,0.06232969090342522,-0.011875309981405735,0.12114597856998444
1772454807086080800,0.961080810546875,0.06462089717388153,0.009082469157874584,0.09016941487789154
1772454807096098600,0.9710986328125,0.06729497760534286,0.01076984778046608,0.06046237796545029
1772454807106116900,0.981116943359375,0.07007278501987457,-0.006451723165810108,0.03829780966043472
1772454807116134700,0.991134765625,0.07564997673034668,-0.017530739307403564,0.031454287469387054
1772454807126152700,1.001152587890625,0.0725775808095932,-0.014822854660451412,0.03669646009802818
1772454807136170800,1.011170654296875,0.0637316182255745,-0.001842341385781765,0.047908369451761246
1772454807146187800,1.021187744140625,0.05055474489927292,0.007612430490553379,0.05792158097028732
1772454807156205600,1.03120556640625,0.04669555649161339,0.0017976842354983091,0.0626193955540657
1772454807166224000,1.041223876953125,0.04647553712129593,-0.019181357696652412,0.06858207285404205
1772454807176241700,1.05124169921875,0.05001913756132126,-0.05249590426683426,0.07675531506538391
1772454807186259700,1.061259765625,0.04969703033566475,-0.09423991292715073,0.0815502181649208
1772454807196277800,1.07127783203125,0.04601414501667023,-0.12314186990261078,0.08586879819631577
1772454807206295800,1.0812958984375,0.051748111844062805,-0.13122758269309998,0.08317078649997711
1772454807216312600,1.0913125,0.04817894101142883,-0.115759938955307,0.07615921646356583
1772454807226331000,1.101330810546875,0.042011458426713943,-0.09742777794599533,0.06317643076181412
1772454807236348700,1.1113486328125,0.02874678745865822,-0.07338609546422958,0.045400362461805344
1772454807246366700,1.12136669921875,0.02026435174047947,-0.06983684748411179,0.02678271196782589
1772454807256384800,1.131384765625,0.015454149805009365,-0.07064804434776306,0.0017878812504932284
1772454807266402800,1.14140283203125,0.013762645423412323,-0.06443683058023453,-0.02833576686680317
1772454807276419600,1.151419677734375,0.01305184792727232,-0.049253612756729126,-0.05910592898726463
1772454807286437600,1.161437744140625,0.013354692608118057,-0.04092959687113762,-0.08077782392501831
1772454807296456000,1.1714560546875,0.01747007481753826,-0.03231267258524895,-0.09588167071342468
1772454807306473700,1.1814736328125,0.019820092245936394,-0.027570074424147606,-0.08867717534303665
1772454807316491800,1.19149169921875,0.025390625,-0.024968432262539864,-0.06255928426980972
1772454807326509800,1.201509765625,0.03030167520046234,-0.02846098318696022,-0.029011942446231842
1772454807336528000,1.21152783203125,0.0339193120598793,-0.03762039542198181,0.00045034161303192377
1772454807346544600,1.221544677734375,0.03566354885697365,-0.04606280475854874,0.013393937610089779
1772454807356563000,1.23156298828125,0.04306101053953171,-0.049064453691244125,0.00945618748664856
1772454807366580700,1.241580810546875,0.048919256776571274,-0.0458223894238472,-0.010740398429334164
1772454807376598800,1.251598876953125,0.05444132164120674,-0.04427003487944603,-0.021601036190986633
1772454807386616800,1.261616943359375,0.050256162881851196,-0.03800436481833458,-0.022434893995523453
1772454807396635000,1.271634765625,0.04516206681728363,-0.02362782321870327,-0.016000164672732353
1772454807406652700,1.281652587890625,0.04484110698103905,-0.016710679978132248,-0.004525313153862953
1772454807416670000,1.291669921875,0.0393131859600544,-0.01690748706459999,-0.0014054200146347284
1772454807426687700,1.301687744140625,0.03981630131602287,-0.014327481389045715,-0.004366964567452669
1772454807436705800,1.311705810546875,0.03482260927557945,-0.006245053373277187,-0.0117915915325284
1772454807446723600,1.3217236328125,0.028769686818122864,-0.0016132653690874577,-0.023105505853891373
1772454807456742000,1.331741943359375,0.025282276794314384,0.006267028860747814,-0.01839091069996357
1772454807466759700,1.341759765625,0.02414790540933609,0.005652876570820808,-0.010478249751031399
1772454807476777700,1.35177783203125,0.020937198773026466,0.007932010106742382,-0.002330841263756156
1772454807486794800,1.361794677734375,0.015597517602145672,0.0020085640717297792,0.00039292481960728765
1772454807496812800,1.371812744140625,0.01429256796836853,0.007832365110516548,-0.006356324069201946
1772454807506830600,1.38183056640625,0.014020527713000774,0.007284262217581272,-0.01879793591797352
1772454807516849000,1.391848876953125,0.012230883352458477,0.006139102391898632,-0.021656040102243423
1772454807526866700,1.40186669921875,0.008715774863958359,-0.0009965214412659407,-0.02150053344666958
1772454807536884700,1.411884765625,0.011255364865064621,0.000956907169893384,-0.021955136209726334
1772454807546901800,1.42190185546875,0.006729943212121725,0.008238823153078556,-0.017345217987895012
1772454807556919800,1.431919921875,-0.0022204085253179073,0.0073693012818694115,-0.009525643661618233
1772454807566937600,1.4419375,-0.010383885353803635,0.010911056771874428,-0.006027056369930506
1772454807576956000,1.451955810546875,-0.007021910976618528,0.01676841266453266,0.0011437712237238884
1772454807586973700,1.4619736328125,-0.0013316653203219175,0.007525302469730377,0.005025227088481188
1772454807596991700,1.47199169921875,-0.002481351839378476,0.006357239559292793,0.002846495248377323
1772454807607009500,1.482009521484375,0.0035787634551525116,0.0056692808866500854,-0.003538137301802635
1772454807617026800,1.49202685546875,0.011351731605827808,0.0037222441751509905,-0.011689274571835995
1772454807627044600,1.502044677734375,0.015051701106131077,0.0010360029991716146,-0.018342558294534683
1772454807637063000,1.51206298828125,0.013590957969427109,0.0013337444979697466,-0.024006301537156105
1772454807647080700,1.522080810546875,0.01225360482931137,0.0019692641217261553,-0.02339434251189232
1772454807657098800,1.5320986328125,0.013642443343997002,-0.0010691364295780659,-0.01876763254404068
1772454807667116500,1.542116455078125,0.01630871556699276,0.008932492695748806,-0.008003611117601395
1772454807677134800,1.552134765625,0.012287874706089497,0.014779994264245033,0.012105118483304977
1772454807687151600,1.562151611328125,0.007862544618546963,0.01073810737580061,0.02401437796652317
1772454807697169700,1.572169677734375,0.006221504881978035,0.008431809954345226,0.01973574422299862
1772454807707187700,1.582187744140625,0.009411171078681946,0.007281639613211155,0.00984740536659956
1772454807717205800,1.592205810546875,0.01085513737052679,0.011540566571056843,0.012998191639780998
1772454807727223600,1.6022236328125,0.005511237308382988,0.011525653302669525,0.02192057855427265
1772454807737241900,1.612241943359375,0.0057573141530156136,0.008157020434737206,0.03896374627947807
1772454807747260000,1.622260009765625,0.007589127868413925,0.00021647452376782894,0.05046143755316734
1772454807757276700,1.632276611328125,0.005139818415045738,-0.012410370633006096,0.05935719609260559
1772454807767294700,1.642294677734375,0.0026322267949581146,-0.02171350084245205,0.05910748615860939
1772454807777312800,1.652312744140625,0.008420873433351517,-0.023901287466287613,0.05014781281352043
1772454807787330600,1.66233056640625,0.006849742494523525,-0.019121738150715828,0.035119738429784775
1772454807797348900,1.672348876953125,0.007076377049088478,-0.011596709489822388,0.025141939520835876
1772454807807367000,1.682366943359375,-0.0010569612495601177,-0.001700395019724965,0.015099821612238884
1772454807817383700,1.6923837890625,0.001577970338985324,0.006484830752015114,0.005212303251028061
1772454807827401700,1.702401611328125,0.004885437898337841,0.013004549778997898,0.004071923438459635
1772454807837419800,1.712419677734375,0.003347995225340128,0.010049507021903992,0.0107071902602911
1772454807847437800,1.722437744140625,0.0009366411250084639,-0.0009862245060503483,0.014622756280004978
1772454807857455600,1.73245556640625,0.008354077115654945,-0.005788969341665506,0.020046284422278404
1772454807867474000,1.742473876953125,0.010173721238970757,-0.006855982355773449,0.02488679438829422
1772454807877491700,1.75249169921875,0.009931107982993126,-0.007278625853359699,0.036350637674331665
1772454807887508700,1.7625087890625,0.0044089555740356445,-0.0036357224453240633,0.04375290870666504
1772454807897526800,1.77252685546875,0.006197268143296242,0.006762056611478329,0.04383786395192146
1772454807907544800,1.782544921875,0.012905150651931763,0.011116291396319866,0.04079388454556465
1772454807917562600,1.792562744140625,0.012858811765909195,0.017031705006957054,0.035161297768354416
1772454807927581000,1.802580810546875,0.010167067870497704,0.013581281527876854,0.022914500907063484
1772454807937598700,1.8125986328125,0.014548500068485737,0.003815203672274947,0.016307197511196136
1772454807947615700,1.82261572265625,0.011852444149553776,-0.008467966690659523,0.01069386675953865
1772454807957633800,1.8326337890625,0.0089621152728796,-0.01573892869055271,0.011092541739344597
1772454807967651800,1.84265185546875,0.00568065932020545,-0.012246263213455677,0.025351934134960175
1772454807977669600,1.852669677734375,0.006029533222317696,0.00542833749204874,0.04096471518278122
1772454807987688000,1.86268798828125,0.001032297033816576,0.013837411068379879,0.06431643664836884
1772454807997705500,1.87270556640625,-0.0021211521234363317,0.020771482959389687,0.08714425563812256
1772454808007723500,1.8827236328125,-0.005914477631449699,0.020480524748563766,0.08832397311925888
1772454808017740500,1.892740478515625,-0.0018747287103906274,0.014050054363906384,0.07788464426994324
1772454808027758600,1.902758544921875,-0.0031292990315705538,0.014350185170769691,0.059512171894311905
1772454808037776400,1.9127763671875,-0.004068329930305481,0.01609056070446968,0.0417984239757061
1772454808047794700,1.922794677734375,-0.002795958425849676,0.014205808751285076,0.02582346275448799
1772454808057812500,1.9328125,-0.0017477382207289338,0.008191592991352081,0.01817353442311287
1772454808067830500,1.94283056640625,-0.0014099202817305923,-0.0031149948481470346,0.012030767276883125
1772454808077848300,1.952848388671875,-0.0004908633418381214,-0.0003959073219448328,-0.0005723764188587666
1772454808087865600,1.962865478515625,0.0002866482827812433,0.010680099949240685,-0.007371262181550264
1772454808097883400,1.97288330078125,0.004124263301491737,0.020368147641420364,-0.00076023128349334
1772454808107901700,1.982901611328125,0.0031203017570078373,0.029370592907071114,0.017018413171172142
1772454808117919500,1.99291943359375,-0.0030750096775591373,0.02748853527009487,0.032926805317401886
1772454808127937500,2.0029375,0.0018043378368020058,0.01621128059923649,0.04458525404334068
1772454808137955300,2.012955322265625,0.004058437421917915,-0.0017591977957636118,0.05040213093161583
1772454808147972600,2.02297265625,0.004653433337807655,-0.010818534530699253,0.05422738566994667
1772454808157990400,2.032990478515625,0.005286733619868755,-0.01161162368953228,0.05879950150847435
1772454808168008400,2.043008544921875,0.006226296536624432,-0.02279902994632721,0.06059740111231804
1772454808178026500,2.053026611328125,0.008776539005339146,-0.022183574736118317,0.06562092900276184
1772454808188044500,2.06304443359375,0.01510531734675169,-0.013487722724676132,0.0658244788646698
1772454808198062300,2.073062255859375,0.011701265349984169,-0.010536674410104752,0.07265415787696838
1772454808208080600,2.08308056640625,0.010967171750962734,-0.005327177233994007,0.06839996576309204
1772454808218097400,2.093097412109375,0.01111843902617693,-0.00029912893660366535,0.0686018317937851
1772454808228115500,2.103115478515625,0.0052705309353768826,0.010075605474412441,0.060142382979393005
1772454808238133500,2.113133544921875,0.00526946596801281,0.021756496280431747,0.05222693830728531
1772454808248151600,2.123151611328125,0.006634868215769529,0.022026274353265762,0.04754216969013214
1772454808258169600,2.133169677734375,0.005248959641903639,0.015034145675599575,0.0523635558784008
1772454808268187600,2.143187744140625,0.003448485629633069,0.0037657602224498987,0.05254066362977028
1772454808278204400,2.153204345703125,0.005893533583730459,-0.009003831073641777,0.054861608892679214
1772454808288222500,2.163222412109375,0.009848374873399734,-0.02163153514266014,0.057171259075403214
1772454808298240500,2.173240478515625,0.011556525714695454,-0.03628424555063248,0.06877065449953079
1772454808308258600,2.183258544921875,0.007216772995889187,-0.04230621084570885,0.0740012526512146
1772454808318276600,2.193276611328125,-0.0003745678113773465,-0.038686975836753845,0.06911568343639374
1772454808328294400,2.20329443359375,-0.0031820321455597878,-0.02415582165122032,0.05843061953783035
1772454808338312700,2.213312744140625,0.0029392435681074858,-0.015336764976382256,0.055847618728876114
1772454808348329500,2.22332958984375,0.004026793874800205,-0.017305245622992516,0.05486603453755379
1772454808358347800,2.23334765625,0.009105175733566284,-0.02075004391372204,0.06030554324388504
1772454808368365600,2.243365478515625,0.013754565268754959,-0.023025140166282654,0.06399200111627579
1772454808378383600,2.253383544921875,0.01689283363521099,-0.02811657264828682,0.06955081969499588
1772454808388401400,2.2634013671875,0.015743456780910492,-0.034059375524520874,0.06823426485061646
1772454808398419700,2.273419677734375,0.012648064643144608,-0.034064698964357376,0.06904546916484833
1772454808408436500,2.2834365234375,0.007790283765643835,-0.03331082686781883,0.05927036330103874
1772454808418454500,2.29345458984375,0.004652280826121569,-0.03725763037800789,0.04590076208114624
1772454808428472600,2.30347265625,0.005588207859545946,-0.034272823482751846,0.03416876867413521
1772454808438490600,2.31349072265625,-0.0017256313003599644,-0.025737393647432327,0.017914697527885437
1772454808448508400,2.32350830078125,-0.002151343272998929,-0.012155415490269661,0.0037965597584843636
1772454808458526700,2.333526611328125,0.0009296678472310305,-0.005366751458495855,-0.005069369915872812
1772454808468544500,2.34354443359375,0.0005368140991777182,-0.0026595189701765776,-0.005202065221965313
1772454808478561500,2.3535615234375,-0.003878973424434662,-0.0015692207962274551,0.0021860760170966387
1772454808488579600,2.36357958984375,-0.003349320963025093,-0.002347826026380062,0.004598185420036316
1772454808498597600,2.37359765625,0.0019570274744182825,-0.005040015559643507,0.018058333545923233
1772454808508615400,2.383615478515625,0.0004465273814275861,-0.01030136551707983,0.031120743602514267
1772454808518633700,2.3936337890625,-0.004767942242324352,-0.015533944591879845,0.043087393045425415
1772454808528651500,2.403651611328125,-0.00216550100594759,-0.009713871404528618,0.057047415524721146
1772454808538669600,2.413669677734375,-0.000529787503182888,-0.007098115049302578,0.07357791811227798
1772454808548686600,2.4236865234375,-0.00013186654541641474,-0.00569996377453208,0.08765020221471786
1772454808558704600,2.43370458984375,-0.0045194244012236595,0.0021728731226176023,0.09399731457233429
1772454808568722400,2.443722412109375,-0.0010896754683926702,0.0037567869294434786,0.08380734175443649
1772454808578740500,2.453740478515625,-0.005533159710466862,0.003161304397508502,0.06777564436197281
1772454808588758500,2.463758544921875,-0.011866502463817596,-0.0033748585265129805,0.048801522701978683
1772454808598776600,2.473776611328125,-0.011620160192251205,-0.04669490084052086,0.03217247873544693
1772454808608793600,2.483793701171875,-0.011255442164838314,-0.08702099323272705,0.02013537846505642
1772454808618811600,2.493811767578125,-0.010285252705216408,-0.047212596982717514,0.01694517768919468
1772454808628829400,2.503829345703125,-0.011623498052358627,-0.022618958726525307,-0.00542091391980648
1772454808638847500,2.513847412109375,-0.01298996526747942,-0.0025640232488512993,-0.017350545153021812
1772454808648865500,2.523865478515625,-0.011578175239264965,0.018238885328173637,-0.01857701689004898
1772454808658883600,2.533883544921875,-0.01145700179040432,0.015934983268380165,-0.016474982723593712
1772454808668901400,2.5439013671875,-0.010888146236538887,0.006816274486482143,-0.008342730812728405
1772454808678918700,2.553918701171875,-0.00779461907222867,-0.003407068317756057,-0.002135168993845582
1772454808688936400,2.5639365234375,0.00028665049467235804,-0.016267677769064903,-0.003352796658873558
1772454808698954500,2.57395458984375,-0.0021541365422308445,-0.017362769693136215,-0.006221287418156862
1772454808708972500,2.58397265625,-0.004525994881987572,-0.014281434006989002,-0.00395269924774766
1772454808718990600,2.593990478515625,-0.0026567222084850073,-0.011961555108428001,-0.009484617039561272
1772454808729008400,2.60400830078125,-0.0035447499249130487,-0.015207755379378796,-0.013377459719777107
1772454808739025700,2.614025634765625,-0.006982091814279556,-0.019449371844530106,-0.026005372405052185
1772454808749043500,2.62404345703125,-0.005101414863020182,-0.013525379821658134,-0.03625044226646423
1772454808759061500,2.6340615234375,-0.007848731242120266,0.004730856046080589,-0.04411529004573822
1772454808769079600,2.64407958984375,-0.012456042692065239,0.02045944519340992,-0.04348903149366379
1772454808779097600,2.65409765625,-0.016446789726614952,0.027595119550824165,-0.03147843852639198
1772454808789115400,2.664115478515625,-0.01600479520857334,0.026172256097197533,-0.017018036916851997
1772454808799133400,2.674133544921875,-0.01924160122871399,0.017035484313964844,-0.009168636985123158
1772454808809150500,2.684150390625,-0.01697281189262867,0.007553343661129475,-0.0071841999888420105
1772454808819168500,2.69416845703125,-0.01650143228471279,0.002587347524240613,-0.01343490555882454
1772454808829186600,2.7041865234375,-0.014990396797657013,0.0022740645799785852,-0.028559625148773193
1772454808839204600,2.71420458984375,-0.009453684091567993,0.001279107527807355,-0.0430605374276638
1772454808849222400,2.724222412109375,-0.0029526883736252785,0.0013084614183753729,-0.038827866315841675
1772454808859240400,2.734240478515625,0.0024649801198393106,-0.00020581181161105633,-0.029088152572512627
1772454808869257500,2.744257568359375,-0.0014982895227149129,0.003696991829201579,-0.014318102970719337
1772454808879275500,2.754275634765625,-0.004535358399152756,0.006554829888045788,-0.001997521612793207
1772454808889293300,2.764293212890625,-0.00797279179096222,0.013796032406389713,0.0019090408459305763
1772454808899311600,2.7743115234375,-0.005983144044876099,0.021011602133512497,0.005520287435501814
1772454808909329700,2.78432958984375,-0.0063607357442379,0.021816667169332504,0.005738803185522556
1772454808919347500,2.794347412109375,-0.0080118952319026,0.015486065298318863,0.006039473693817854
1772454808929365800,2.80436572265625,-0.005297950468957424,-0.0027513904497027397,0.008045426569879055
1772454808939382500,2.814382568359375,0.0014004323165863752,-0.007827376015484333,0.0035097964573651552
1772454808949400300,2.824400390625,0.0036437385715544224,-0.012860575690865517,0.0000429502542829141
1772454808959418600,2.834418701171875,0.00009294599294662476,-0.005321965552866459,-0.003920632414519787
1772454808969436700,2.844436767578125,0.0003454167162999511,-0.001100160414353013,-0.011365722864866257
1772454808979454500,2.854454345703125,0.00039628316881135106,0.011415365152060986,-0.018889686092734337
1772454808989472500,2.864472412109375,0.0038559045642614365,0.015174484811723232,-0.015301638282835484
1772454808999490000,2.874489990234375,0.004558712709695101,0.020527971908450127,-0.00728978356346488
1772454809009508000,2.884508056640625,0.003302544355392456,0.02757362090051174,-0.006512270774692297
1772454809019526000,2.89452587890625,0.00904405303299427,0.02997286431491375,0.00032965667196549475
1772454809029544200,2.904544189453125,0.005468228831887245,0.017588049173355103,-0.004803298506885767
1772454809039562000,2.91456201171875,0.007800358347594738,0.0055851805955171585,-0.011836973018944263
1772454809049580000,2.924580078125,0.00804395042359829,-0.0025036700535565615,-0.016092423349618912
1772454809059598000,2.93459814453125,0.015156988054513931,-0.013549663126468658,-0.024285638704895973
1772454809069615000,2.944614990234375,0.012654055841267109,-0.00787701178342104,-0.02409154362976551
1772454809079633000,2.9546328125,0.008403117768466473,-0.002750692656263709,-0.013773392885923386
1772454809089651200,2.964651123046875,0.001145166577771306,0.004054340533912182,-0.008387488313019276
1772454809099669000,2.9746689453125,0.005380924325436354,0.013981006108224392,-0.006415150128304958
1772454809109687000,2.98468701171875,0.006288392469286919,0.02189306542277336,-0.002575038932263851
1772454809119705000,2.994705078125,0.001384447910822928,0.019628047943115234,0.0027408970054239035
1772454809129722000,3.00472216796875,0.004415750037878752,0.013010026887059212,-0.003493533469736576
1772454809139740000,3.014739990234375,0.010686428286135197,0.012302158400416374,-0.0077876141294837
1772454809149758200,3.02475830078125,0.009987834841012955,0.009666483849287033,-0.005968301557004452
1772454809159776000,3.03477587890625,0.006785117089748383,0.0033558576833456755,-0.006097198463976383
1772454809169794000,3.0447939453125,0.011448138393461704,0.004618664272129536,-0.005897165276110172
1772454809179811800,3.054811767578125,0.011985830031335354,0.0040815044194459915,-0.008858068846166134
1772454809189830100,3.064830078125,0.015731651335954666,0.0035715901758521795,-0.003994374070316553
1772454809199847000,3.074846923828125,0.011895900592207909,0.01026065181940794,-0.0049081044271588326
1772454809209865200,3.084865234375,0.011595545336604118,0.016727235168218613,-0.006814746186137199
1772454809219883000,3.094883056640625,0.010996334254741669,0.020592015236616135,-0.008659517392516136
1772454809229901000,3.104901123046875,0.010756689123809338,0.02143019810318947,-0.015105873346328735
1772454809239918800,3.1149189453125,0.014261143282055855,0.021731136366724968,-0.020588790997862816
1772454809249937200,3.124937255859375,0.02054486982524395,0.025137370452284813,-0.02673378773033619
1772454809259954000,3.134953857421875,0.021846089512109756,0.016861865296959877,-0.02114940620958805
1772454809269972000,3.144971923828125,0.012597520835697651,0.03370695933699608,-0.02143094129860401
1772454809279990000,3.154989990234375,0.01948365569114685,0.02860194630920887,-0.0297879409044981
1772454809290008000,3.165008056640625,0.023313628509640694,0.005569452419877052,-0.04111815616488457
1772454809300025900,3.17502587890625,0.018549498170614243,-0.0038703884929418564,-0.056207891553640366
1772454809310044200,3.185044189453125,0.02048562280833721,-0.003340777475386858,-0.08032622933387756
1772454809320062000,3.19506201171875,0.027535542845726013,0.010528698563575745,-0.09423591941595078
1772454809330079000,3.205078857421875,0.022822273895144463,0.03108173795044422,-0.10327792912721634
1772454809340097000,3.215096923828125,0.012858057394623756,0.03762032836675644,-0.10595680773258209
1772454809350115000,3.225114990234375,0.008494820445775986,0.050922371447086334,-0.09827256202697754
1772454809360132900,3.2351328125,0.007183479610830545,0.06047699227929115,-0.08746837824583054
1772454809370151200,3.245151123046875,0.006287325639277697,0.05988284572958946,-0.07085131853818893
1772454809380169200,3.255169189453125,0.009804479777812958,0.044819604605436325,-0.0540752075612545
1772454809390186000,3.26518603515625,0.015091256238520145,0.029819326475262642,-0.03624626621603966
1772454809400204000,3.2752041015625,0.019074812531471252,0.019018610939383507,-0.01736179180443287
1772454809410222000,3.28522216796875,0.015503686852753162,0.014212467707693577,-0.0071818893775343895
1772454809420240000,3.295239990234375,0.016380399465560913,0.008217957802116871,0.003100042464211583
1772454809430258000,3.3052578125,0.015937602147459984,0.008816935122013092,0.006922729313373566
1772454809440276200,3.315276123046875,0.011961237527430058,0.013353897258639336,-0.0013109655119478703
1772454809450294000,3.3252939453125,0.012941548600792885,0.020818954333662987,-0.007511581294238567
1772454809460311000,3.33531103515625,0.017231103032827377,0.025147922337055206,-0.02151847817003727
1772454809470329000,3.3453291015625,0.02263501100242138,0.03325217217206955,-0.03315408527851105
1772454809480347000,3.355346923828125,0.024351153522729874,0.03423994034528732,-0.034454505890607834
1772454809490365000,3.365364990234375,0.024259228259325027,0.020370204001665115,-0.03652738407254219
1772454809500383200,3.37538330078125,0.028214022517204285,0.013711769133806229,-0.031985629349946976
1772454809510401000,3.385401123046875,0.026711510494351387,0.006283187307417393,-0.027854152023792267
1772454809520418000,3.39541796875,0.027182357385754585,0.009404677897691727,-0.02137468196451664
1772454809530436000,3.40543603515625,0.024463757872581482,0.0072166332975029945,-0.007720791269093752
1772454809540454100,3.4154541015625,0.019546763971447945,0.01714143715798855,0.0037478453014045954
1772454809550472000,3.425471923828125,0.017163099721074104,0.03501047566533089,0.008578942157328129
1772454809560490200,3.435490234375,0.022213252261281013,0.04304256662726402,0.011574465781450272
1772454809570508000,3.445508056640625,0.02481214329600334,0.04487212747335434,0.014196095988154411
1772454809580524800,3.45552490234375,0.023924512788653374,0.02970755286514759,0.006714477203786373
1772454809590543000,3.465543212890625,0.026867305859923363,0.033720407634973526,-0.004801563918590546
1772454809600561200,3.47556103515625,0.031513988971710205,0.03348151966929436,-0.018264109268784523
1772454809610579000,3.485578857421875,0.03283185511827469,0.030452368780970573,-0.032712921500205994
1772454809620597200,3.49559716796875,0.03446171060204506,0.020907599478960037,-0.049037300050258636
1772454809630615000,3.505614990234375,0.031002216041088104,0.006239278241991997,-0.060970574617385864
1772454809640633000,3.515633056640625,0.03012816794216633,-0.0022476830054074526,-0.07926089316606522
1772454809650650000,3.525650146484375,0.030909093096852303,-0.006495656445622444,-0.08473797142505646
1772454809660668200,3.535668212890625,0.03126329183578491,-0.006783011835068464,-0.08478404581546783
1772454809670686000,3.54568603515625,0.02538277581334114,-0.0035780430771410465,-0.0681498721241951
1772454809680704000,3.5557041015625,0.019587203860282898,0.011142313480377197,-0.05441834777593613
1772454809690722000,3.56572216796875,0.015216158702969551,0.021656205877661705,-0.043880753219127655
1772454809700740000,3.575739990234375,0.017520857974886894,0.03155038505792618,-0.04318300262093544
1772454809710758000,3.5857578125,0.018596282228827477,0.0347643718123436,-0.04603409394621849
1772454809720775200,3.595775146484375,0.014742420986294746,0.024943966418504715,-0.04526231065392494
1772454809730793000,3.60579296875,0.014321204274892807,0.005795196630060673,-0.03944484516978264
1772454809740811000,3.61581103515625,0.010156020522117615,-0.008366961032152176,-0.03457259014248848
1772454809750829000,3.6258291015625,0.008992302231490612,-0.005260041914880276,-0.0315701849758625
1772454809760847000,3.63584716796875,0.000763667281717062,0.011462746188044548,-0.021118607372045517
1772454809770865000,3.645864990234375,-0.00625251978635788,0.015428207814693451,-0.005891725420951843
1772454809780882200,3.655882080078125,-0.0044282544404268265,0.020934294909238815,0.004541740752756596
1772454809790900000,3.66589990234375,-0.002802262781187892,0.01891670748591423,0.009804535657167435
1772454809800918000,3.67591796875,-0.0022070463746786118,0.025699779391288757,0.005686490330845118
1772454809810936000,3.68593603515625,-0.006215499714016914,0.026543930172920227,-0.0030242768116295338
1772454809820954000,3.6959541015625,-0.00838304590433836,0.011145265772938728,-0.020752673968672752
1772454809830972000,3.705971923828125,-0.005359116476029158,-0.0013678476680070162,-0.04115143045783043
1772454809840989200,3.7159892578125,-0.00048819498624652624,-0.006182576529681683,-0.04748522490262985
1772454809851007000,3.726007080078125,-0.0018464039312675595,-0.012038114480674267,-0.04574456065893173
1772454809861025000,3.73602490234375,-0.0026557384990155697,-0.016926612704992294,-0.036616843193769455
1772454809871043000,3.74604296875,0.0004286897601559758,-0.013016551733016968,-0.026498831808567047
1772454809881061000,3.75606103515625,-0.0030091851949691772,-0.004955430049449205,-0.010696166194975376
1772454809891079000,3.766078857421875,-0.006506496109068394,-0.00030523049645125866,0.010167409665882587
1772454809901097000,3.776096923828125,-0.00883409846574068,-0.0006578331813216209,0.032089751213788986
1772454809911114000,3.786114013671875,-0.009343026205897331,-0.003617983078584075,0.04341886192560196
1772454809921132000,3.796132080078125,-0.005691565573215485,-0.0010576201602816582,0.045083072036504745
1772454809931150000,3.806150146484375,-0.005673546344041824,0.0007400291506201029,0.0272729080170393
1772454809941168000,3.816168212890625,-0.006854658015072346,0.002051902236416936,0.0007691298378631473
1772454809951186000,3.82618603515625,-0.008388196118175983,-0.0019319051643833518,-0.01768365502357483
1772454809961204000,3.836203857421875,-0.008509903214871883,-0.0037247452419251204,-0.027813253924250603
1772454809971221000,3.846220947265625,-0.011239331215620041,-0.005878717638552189,-0.03322093188762665
1772454809981239000,3.856239013671875,-0.015429547987878323,-0.0073394617065787315,-0.024898819625377655
1772454809991256800,3.8662568359375,-0.01617785356938839,-0.003499989863485098,-0.015185068361461163
1772454810001275100,3.876275146484375,-0.0175592340528965,-0.005291764624416828,0.0012253293534740806
1772454810011293000,3.88629296875,-0.013821979984641075,-0.009664853103458881,0.022285964339971542
1772454810021311000,3.89631103515625,-0.01033244002610445,-0.015295308083295822,0.0342872329056263
1772454810031328000,3.906327880859375,-0.007583610247820616,-0.020937828347086906,0.0455324687063694
1772454810041346000,3.916345947265625,-0.006551634985953569,-0.01842380501329899,0.04523472860455513
1772454810051363800,3.92636376953125,-0.004550182726234198,-0.016684727743268013,0.03149599954485893
1772454810061382100,3.936382080078125,-0.006451679393649101,-0.01870899647474289,0.015907183289527893
1772454810071400000,3.94639990234375,-0.0042273178696632385,-0.01267429068684578,0.00120760768186301
1772454810081418000,3.95641796875,-0.006088867783546448,-0.006876855157315731,-0.0009018821874633431
1772454810091436000,3.96643603515625,-0.009317508898675442,-0.008014225400984287,0.0033317157067358494
1772454810101453000,3.976453125,-0.015160484239459038,-0.007599039003252983,0.010306534357368946
1772454810111470800,3.986470947265625,-0.016757801175117493,-0.013585615903139114,0.018675677478313446
1772454810121489200,3.9964892578125,-0.016106393188238144,-0.014399743638932705,0.013841240666806698
1772454810131507000,4.0065068359375,-0.008775055408477783,-0.018337078392505646,0.0057423654943704605
1772454810141525000,4.01652490234375,-0.011599337682127953,-0.01932324841618538,-0.0025150319561362267
1772454810151542800,4.026542724609375,-0.011922248639166355,-0.01560492254793644,-0.004701899364590645
1772454810161560000,4.03656005859375,-0.010734478011727333,-0.004343478940427303,-0.005128005053848028
1772454810171577900,4.046577880859375,-0.005904659628868103,-0.0013948127161711454,-0.0019764285534620285
1772454810181596200,4.05659619140625,-0.003212470095604658,-0.0003777514211833477,0.0021858259569853544
1772454810191614000,4.066614013671875,-0.007483477704226971,-0.006255507469177246,0.006847369018942118
1772454810201632000,4.076632080078125,-0.0035166991874575615,-0.005621409043669701,0.011465290561318398
1772454810211649800,4.08664990234375,-0.0009533194825053215,-0.0003067711368203163,0.0174065213650465
1772454810221668000,4.096668212890625,-0.002618327969685197,-0.005093004088848829,0.024789337068796158
1772454810231684900,4.106684814453125,-0.006026280112564564,-0.0012917194981127977,0.02504691667854786
1772454810241703000,4.116702880859375,-0.0034344918094575405,-0.0003899731673300266,0.02299708127975464
1772454810251721000,4.126720947265625,0.001458441372960806,-0.0057473923079669476,0.012882898561656475
1772454810261739000,4.136739013671875,0.003344758413732052,-0.014878572896122932,0.009760875254869461
1772454810271756800,4.1467568359375,0.0022190879099071026,-0.015396611765027046,0.008130913600325584
1772454810281775000,4.156775146484375,-0.0007149166194722056,-0.015428037382662296,0.0018591693369671702
1772454810291792000,4.1667919921875,-0.003270260989665985,-0.015733271837234497,-0.004603636916726828
1772454810301810000,4.176809814453125,-0.0013767535565420985,-0.014534582383930683,-0.014536960981786251
1772454810311828000,4.186827880859375,-0.0077851139940321445,-0.011363598518073559,-0.02304334007203579
1772454810321846000,4.196845947265625,-0.005856718868017197,-0.007376580499112606,-0.011260448954999447
1772454810331863800,4.20686376953125,-0.013920827768743038,0.00010602711699903011,0.001896401634439826
1772454810341882000,4.216882080078125,-0.015781577676534653,0.009848669171333313,0.012351172976195812
1772454810351899000,4.22689892578125,-0.01185620203614235,0.012907147407531738,0.020210906863212585
1772454810361917000,4.2369169921875,-0.008304343558847904,0.0021599603351205587,0.023738263174891472
1772454810371935000,4.24693505859375,-0.005494452081620693,-0.011855586431920528,0.025626108050346375
1772454810381953000,4.256953125,-0.007414591498672962,-0.023956190794706345,0.025584829971194267
1772454810391971000,4.26697119140625,-0.009650928899645805,-0.015285061672329903,0.02454492822289467
1772454810401988900,4.27698876953125,-0.008850648999214172,-0.003965562209486961,0.02275581657886505
1772454810412007200,4.287007080078125,-0.010930892080068588,0.008809407241642475,0.020495163276791573
1772454810422024000,4.29702392578125,-0.004123053513467312,0.014389262534677982,0.019258124753832817
1772454810432042000,4.3070419921875,0.0024601491168141365,0.020706256851553917,0.019782114773988724
1772454810442060000,4.31706005859375,0.0024897102266550064,0.02741262875497341,0.020747510716319084
1772454810452078000,4.327078125,0.0008678487502038479,0.02145855687558651,0.024161705747246742
1772454810462096000,4.337095947265625,0.005287897307425737,-0.000451801810413599,0.032012440264225006
1772454810472114200,4.3471142578125,0.012262847274541855,-0.03358842805027962,0.03438330814242363
1772454810482131000,4.357130859375,0.004465377889573574,-0.07127215713262558,0.028491860255599022
1772454810492149000,4.36714892578125,-0.005208153277635574,-0.08258981257677078,0.007310554850846529
1772454810502167000,4.3771669921875,-0.0032584532164037228,-0.02275817282497883,-0.02435629442334175
1772454810512185000,4.38718505859375,-0.0006246831035241485,0.011136782355606556,-0.055380575358867645
1772454810522203000,4.397202880859375,-0.004395985510200262,0.01896168291568756,-0.060444045811891556
1772454810532221200,4.40722119140625,-0.009836501441895962,0.014204604551196098,-0.050353385508060455
1772454810542239000,4.417239013671875,-0.004508847836405039,0.010928650386631489,-0.04158252850174904
1772454810552256000,4.427256103515625,0.003077999223023653,0.01253439299762249,-0.025390714406967163
1772454810562274000,4.437274169921875,0.0055864304304122925,0.011898430064320564,-0.001047557103447616
1772454810572292000,4.4472919921875,0.0068288883194327354,0.008904177695512772,0.018895288929343224
1772454810582310000,4.457309814453125,-0.005001938436180353,0.007067129947245121,0.03271230310201645
1772454810592328200,4.467328125,0.0003676133928820491,-0.005646505393087864,0.026101255789399147
1772454810602346000,4.477345947265625,0.0063429479487240314,0.00508683267980814,0.007996287196874619
1772454810612363000,4.487363037109375,0.0004648583708330989,0.02333623170852661,-0.012786396779119968
1772454810622381000,4.497381103515625,-0.006693452131003141,0.030699605122208595,-0.022486427798867226
1772454810632399000,4.507399169921875,-0.00915225874632597,0.02960609644651413,-0.017894333228468895
1772454810642417000,4.5174169921875,-0.0141470180824399,0.024156203493475914,-0.002412579022347927
1772454810652435000,4.52743505859375,-0.01868717558681965,0.02407284639775753,0.01752650924026966
1772454810662453000,4.537452880859375,-0.01876142993569374,0.018005842342972755,0.03044193424284458
1772454810672470000,4.547469970703125,-0.013570976443588734,-0.004348409362137318,0.03663628548383713
1772454810682488000,4.557488037109375,-0.009602333419024944,-0.021452294662594795,0.03028198517858982
1772454810692506000,4.567506103515625,-0.0006604164373129606,-0.024659505113959312,0.020942529663443565
1772454810702524000,4.57752392578125,0.0003334751818329096,-0.020279671996831894,0.005636811256408691
1772454810712542000,4.5875419921875,0.002326859626919031,-0.013369176536798477,-0.009804395027458668
1772454810722560000,4.59756005859375,0.003477611346170306,-0.00728092435747385,-0.022344421595335007
1772454810732578000,4.607578125,-0.00011805340182036161,-0.0013780491426587105,-0.030279165133833885
1772454810742595000,4.617594970703125,-0.006085132248699665,-0.0026869927532970905,-0.03085174411535263
1772454810752613000,4.627613037109375,-0.010558398440480232,-0.0022470452822744846,-0.022426430135965347
1772454810762631000,4.637630859375,-0.015128649771213531,-0.004355203360319138,-0.01209443062543869
1772454810772649000,4.64764892578125,-0.01831156760454178,0.0010920127388089895,-0.0011879788944497705
1772454810782667000,4.6576669921875,-0.018402915447950363,0.017878448590636253,0.008489149622619152
1772454810792685000,4.66768505859375,-0.017102548852562904,0.024065112695097923,0.015568423084914684
1772454810802701800,4.677701904296875,-0.012544815428555012,0.015423156321048737,0.0158107690513134
1772454810812720000,4.68772021484375,-0.008015266619622707,-0.0021121695172041655,0.008261643350124359
1772454810822738000,4.697738037109375,-0.0029416782781481743,-0.008434247225522995,-0.0067742969840765
1772454810832756000,4.707755859375,-0.006002089940011501,-0.0014560290146619081,-0.009702145121991634
1772454810842774000,4.71777392578125,-0.011372088454663754,-0.0017577651888132095,-0.01172641385346651
1772454810852792000,4.7277919921875,-0.013298172503709793,0.0000635415781289339,-0.007761217653751373
1772454810862808800,4.737808837890625,-0.012034503743052483,-0.004336533136665821,-0.0061175148002803326
1772454810872827100,4.7478271484375,-0.011290110647678375,-0.004034447018057108,-0.0024380008690059185
1772454810882845000,4.757844970703125,-0.011340710334479809,0.0020854969043284655,0.0009127884404733777
1772454810892863000,4.767863037109375,-0.013667774386703968,0.006262574344873428,0.009144932962954044
1772454810902881000,4.777881103515625,-0.012225139886140823,0.002268365351483226,0.011416874825954437
1772454810912899000,4.787899169921875,-0.006305420771241188,-0.009403477422893047,0.0020144558511674404
1772454810922916900,4.797916748046875,-0.003206033958122134,-0.012296469882130623,-0.00630632508546114
1772454810932934100,4.80793408203125,-0.006401564460247755,-0.010942474938929081,-0.011590059846639633
1772454810942952000,4.817951904296875,-0.009630381129682064,-0.010722498409450054,-0.017670057713985443
1772454810952970000,4.827969970703125,-0.00921842735260725,-0.005358969327062368,-0.027337953448295593
1772454810962987800,4.83798779296875,-0.008629336021840572,-0.006742481607943773,-0.028115063905715942
1772454810973006000,4.848006103515625,-0.006569881457835436,-0.00846883561462164,-0.022479504346847534
1772454810983023900,4.85802392578125,-0.007685480173677206,0.0019142969977110624,-0.007514137774705887
1772454810993041200,4.868041259765625,-0.010374117642641068,0.004158525727689266,0.009571912698447704
1772454811003059000,4.878058837890625,-0.009471305646002293,0.001140631502494216,0.02160647138953209
1772454811013077000,4.888076904296875,-0.007011600770056248,-0.008750750683248043,0.022126123309135437
1772454811023094800,4.8980947265625,-0.005909052211791277,-0.008938769809901714,0.01266870554536581
1772454811033113000,4.908113037109375,-0.009821419604122639,-0.002938062883913517,0.000034896336728706956
1772454811043131100,4.918131103515625,-0.007729506120085716,0.0035083850380033255,-0.008793216198682785
1772454811053148000,4.92814794921875,-0.0065214061178267,0.006174726411700249,-0.02144588716328144
1772454811063166000,4.938166015625,-0.0025511658750474453,0.005275377072393894,-0.02348879911005497
1772454811073184000,4.94818408203125,-0.0050760190933942795,-0.0008823990356177092,-0.018636776134371758
1772454811083201800,4.958201904296875,-0.0055295554921031,-0.009461772628128529,-0.0051654428243637085
1772454811093220000,4.96822021484375,-0.0011536740930750966,-0.019475752487778664,0.009301493875682354
1772454811103238100,4.978238037109375,0.0005387648707255721,-0.023107770830392838,0.022228479385375977
1772454811113256000,4.988255859375,-0.0006937012076377869,-0.0105408551171422,0.027412990108132362
1772454811123273000,4.99827294921875,-0.0035632571671158075,0.0008907637093216181,0.025064615532755852
1772454811133291000,5.008291015625,-0.004145517013967037,-0.002303368179127574,0.01979978196322918
1772454811143308800,5.018308837890625,-0.003943116404116154,-0.00812290795147419,0.00882116798311472
1772454811153327000,5.0283271484375,0.00005109841004014015,-0.0043636830523610115,0.004548437427729368
1772454811163345200,5.03834521484375,-0.004863232374191284,-0.0014038458466529846,0.0023420085199177265
1772454811173363000,5.048363037109375,-0.0026776213198900223,-0.002927699126303196,0.0016121650114655495
1772454811183380000,5.0583798828125,-0.0022919955663383007,-0.01083728764206171,0.003892097156494856
1772454811193398000,5.06839794921875,-0.005504964385181665,-0.017469113692641258,-0.002027431968599558
1772454811203416000,5.078416015625,-0.003214646130800247,-0.011309487745165825,-0.0033243915531784296
1772454811213433900,5.088433837890625,-0.004516449756920338,0.004448269493877888,-0.0004939007922075689
1772454811223452200,5.0984521484375,-0.007327682338654995,0.010947979986667633,0.014359081164002419
1772454811233470000,5.108469970703125,-0.00969144981354475,0.008170428685843945,0.023411108180880547
1772454811243487000,5.118487060546875,-0.002492925152182579,0.0003838783595710993,0.03004717268049717
1772454811253505000,5.128505126953125,-0.004086657892912626,0.0025432708207517862,0.023556193336844444
1772454811263523000,5.138523193359375,0.00037573452573269606,0.00033923867158591747,0.01595206931233406
1772454811273540900,5.148540771484375,-0.0023658552672713995,-0.013466078788042068,0.00439249724149704
1772454811283559200,5.15855908203125,-0.009244800545275211,-0.02178233303129673,-0.006144033279269934
1772454811293577000,5.168576904296875,-0.00948852114379406,-0.002915204269811511,-0.02386748418211937
1772454811303595000,5.178594970703125,-0.007771580945700407,0.007984581403434277,-0.040146585553884506
1772454811313612000,5.188612060546875,-0.0017637064447626472,-0.0039778538048267365,-0.052325326949357986
1772454811323630000,5.198630126953125,0.006596488878130913,-0.007703882642090321,-0.05104008689522743
1772454811333648000,5.20864794921875,0.007984569296240807,-0.0051144566386938095,-0.03968745097517967
1772454811343666200,5.218666259765625,0.004262268543243408,-0.01086315605789423,-0.015883849933743477
1772454811353684000,5.22868408203125,0.005255931988358498,-0.02199535444378853,-0.00002756637695711106
1772454811363702000,5.238701904296875,0.01038890890777111,-0.022497892379760742,-0.0024720821529626846
1772454811373719000,5.248718994140625,0.010151181370019913,-0.004981543403118849,-0.010129437781870365
1772454811383737000,5.258737060546875,0.008541300892829895,0.0074311839416623116,-0.009515312500298023
1772454811393755000,5.2687548828125,0.0073167793452739716,0.003213535761460662,0.000174598753801547
1772454811403773200,5.278773193359375,0.006461638491600752,-0.007964017800986767,0.0037762578576803207
1772454811413791000,5.288791015625,0.005845030304044485,-0.021361611783504486,0.005037014372646809
1772454811423809000,5.29880908203125,0.003218354657292366,-0.017851298674941063,-0.0006086206994950771
1772454811433826000,5.308825927734375,0.002906844951212406,-0.004682644736021757,-0.0009642150835134089
1772454811443844000,5.318843994140625,-0.0031843367032706738,-0.0013334532268345356,-0.004725397564470768
1772454811453862000,5.32886181640625,-0.007635496556758881,-0.002884000539779663,-0.015445259399712086
1772454811463880000,5.3388798828125,-0.008364137262105942,-0.004011316690593958,-0.029797036200761795
1772454811473898000,5.34889794921875,-0.008630270138382912,-0.010801118798553944,-0.03886852040886879
1772454811483916000,5.358916015625,-0.010587426833808422,-0.019735490903258324,-0.04091303050518036
1772454811493933000,5.36893310546875,-0.008861440233886242,-0.023863835260272026,-0.03983289748430252
1772454811503951000,5.378951171875,-0.0029734568670392036,-0.012467636726796627,-0.03946378454566002
1772454811513969000,5.388968994140625,-0.004832831211388111,-0.002917282748967409,-0.027382750064134598
1772454811523987000,5.398987060546875,-0.004178225994110107,0.007370508275926113,-0.015218496322631836
1772454811534005000,5.4090048828125,-0.0032717688009142876,0.00533391535282135,-0.006426296196877956
1772454811544023000,5.41902294921875,-0.0030185021460056305,-0.0033682293724268675,-0.00115297082811594
1772454811554040800,5.429040771484375,-0.0003341709962114692,-0.014138564467430115,-0.006357998587191105
1772454811564058000,5.43905810546875,-0.000978922238573432,-0.019856901839375496,-0.01935821957886219
1772454811574076000,5.449075927734375,-0.002558824373409152,-0.02317533642053604,-0.03377661481499672
1772454811584094000,5.459093994140625,-0.005901091732084751,-0.01696750707924366,-0.042060378938913345
1772454811594112000,5.469112060546875,-0.0011614420218393207,-0.015179000794887543,-0.0344541110098362
1772454811604130000,5.479130126953125,-0.002856544218957424,-0.02244996279478073,-0.01919553056359291
1772454811614147800,5.48914794921875,-0.006737745366990566,-0.02314479649066925,-0.009875258430838585
1772454811624165000,5.4991650390625,-0.003444746835157275,-0.00821671448647976,0.0002514113439247012
1772454811634183000,5.509182861328125,-0.0030308044515550137,0.00004470883868634701,0.005015258677303791
1772454811644201000,5.519200927734375,-0.0030931225046515465,-0.002530834171921015,0.004075429402291775
1772454811654219000,5.529218994140625,0.0024479925632476807,-0.005233521107584238,-0.0064931330271065235
1772454811664237000,5.539237060546875,0.004418731667101383,-0.00020174449309706688,-0.011686298064887524
1772454811674254800,5.5492548828125,0.00316282594576478,-0.002248881384730339,-0.013788484036922455
1772454811684272000,5.559272216796875,0.006777267903089523,-0.01061706617474556,-0.011611349880695343
1772454811694290000,5.5692900390625,0.0091136135160923,-0.019064072519540787,-0.014707145281136036
1772454811704308000,5.579307861328125,0.010423623025417328,-0.01962386816740036,-0.019231325015425682
1772454811714326000,5.589325927734375,0.012128361500799656,-0.012201155535876751,-0.02109910175204277
1772454811724344000,5.599343994140625,0.006909897550940514,-0.0009692739695310593,-0.01814911887049675
1772454811734361900,5.60936181640625,0.003902250900864601,0.00955959688872099,-0.013336957432329655
1772454811744379100,5.619379150390625,0.0026114163920283318,0.01891421526670456,-0.007907037623226643
1772454811754397000,5.62939697265625,-0.000836307997815311,0.023301996290683746,-0.007398350164294243
1772454811764415000,5.6394150390625,-0.00021632411517202854,0.02194644697010517,-0.003990569151937962
1772454811774433000,5.64943310546875,0.0007140492089092731,0.014307192526757717,-0.008630474098026752
1772454811784451000,5.659451171875,-0.0011168739292770624,0.002367974491789937,-0.011871008202433586
1772454811794468900,5.66946875,0.00416888203471899,-0.009769676253199577,-0.02298329770565033
1772454811804487000,5.67948681640625,0.004366222303360701,-0.018708309158682823,-0.03001643903553486
1772454811814504000,5.68950390625,0.005105200689285994,-0.017087461426854134,-0.03145018219947815
1772454811824522000,5.69952197265625,-0.0010200698161497712,-0.008043631911277771,-0.027088988572359085
1772454811834539800,5.709539794921875,0.0032640225253999233,0.00029554753564298153,-0.019504982978105545
1772454811844558000,5.71955810546875,0.0016062046634033322,0.0020681472960859537,-0.01486788596957922
1772454811854576000,5.729576171875,0.0025065368972718716,0.003126148832961917,-0.010742077603936195
1772454811864594000,5.739593994140625,0.00496676517650485,0.004102462902665138,-0.00210384838283062
1772454811874611000,5.74961083984375,0.0025718703400343657,-0.0027359735686331987,0.0004676835669670254
1772454811884629000,5.75962890625,0.0032629608176648617,-0.009981902316212654,-0.0010260834824293852
1772454811894646800,5.769646728515625,0.005157312378287315,-0.013220845721662045,-0.004162883851677179
1772454811904665000,5.7796650390625,0.004905643407255411,-0.015467754565179348,-0.005025215446949005
1772454811914683100,5.78968310546875,-0.000932054128497839,-0.0049418252892792225,-0.005889039020985365
1772454811924701000,5.799700927734375,0.0009553281124681234,0.001748301787301898,-0.003167554968968034
1772454811934718000,5.809718017578125,0.0033431709744036198,0.005174631252884865,0.0003858202835544944
1772454811944736000,5.819736083984375,0.0025098680052906275,0.005905935540795326,0.007593133486807346
1772454811954753800,5.82975390625,-0.004092206247150898,0.012629452161490917,0.007601599209010601
1772454811964772000,5.839772216796875,0.002370753325521946,0.015439352951943874,-0.0012350358301773667
1772454811974790100,5.8497900390625,0.0049573504365980625,0.014442243613302708,-0.0032698127906769514
1772454811984808000,5.859807861328125,-0.00010345480404794216,0.0072682201862335205,-0.0084685692563653
1772454811994824700,5.86982470703125,-0.002883339300751686,0.0028438011649996042,-0.0038905292749404907
1772454812004842800,5.8798427734375,0.0008653260301798582,0.005228661932051182,-0.002192231360822916
1772454812014860500,5.889860595703125,0.0021569463424384594,0.007327357307076454,0.004187829792499542
1772454812024878800,5.89987890625,0.0038065083790570498,0.007501528598368168,0.0059830667451024055
1772454812034897000,5.90989697265625,0.006502692587673664,0.006081797182559967,0.004998229444026947
1772454812044914700,5.919914794921875,0.0036525775212794542,-0.002583329565823078,-0.0014293096028268337
1772454812054931700,5.929931640625,0.0023489187005907297,-0.005579156801104546,-0.006710737943649292
1772454812064949800,5.93994970703125,0.0025499872863292694,-0.008096642792224884,-0.008850587531924248
1772454812074967800,5.9499677734375,0.003598785260692239,-0.012419227510690689,-0.0030029478948563337
1772454812084985900,5.95998583984375,-0.0031493986025452614,-0.009310785681009293,0.0015284206019714475
1772454812095004000,5.97000390625,-0.0013265508459880948,-0.00018203002400696278,0.00020111746562179178
1772454812105021700,5.980021728515625,-0.004475738853216171,0.003953859210014343,0.000014429868315346539
1772454812115039700,5.990039794921875,-0.006380255334079266,0.004900094121694565,0.001751335454173386
1772454812125056800,6.000056884765625,-0.006044164299964905,0.005370141938328743,-0.00036294813617132604
1772454812135074800,6.01007470703125,-0.0012529123341664672,0.002133301692083478,-0.00457192026078701
1772454812145092600,6.020092529296875,0.0035218694247305393,-0.006336349528282881,-0.010238594375550747
1772454812155111000,6.03011083984375,0.0009225747198797762,-0.009041806682944298,-0.012587664648890495
1772454812165128700,6.040128662109375,0.0015396291855722666,-0.0037237401120364666,-0.013382884673774242
1772454812175146800,6.050146728515625,-0.0022274483926594257,0.0010232699569314718,-0.0020666676573455334
1772454812185163800,6.060163818359375,-0.006009403616189957,0.004192697815597057,0.0067910063080489635
1772454812195181800,6.070181884765625,-0.009164635092020035,0.006891612894833088,0.014375381171703339
1772454812205199600,6.08019970703125,-0.006745685823261738,0.007392287254333496,0.010618459433317184
1772454812215218000,6.090218017578125,-0.003157207742333412,0.007683616131544113,0.0047487313859164715
1772454812225235700,6.100235595703125,-0.003911148756742477,0.011139067821204662,0.0013247050810605288
1772454812235253800,6.110253662109375,0.0013687488390132785,0.01234465278685093,-0.008030430413782597
1772454812245270800,6.120270751953125,0.003388223936781287,0.004589528776705265,-0.012677114456892014
1772454812255288800,6.130288818359375,0.008238052949309349,-0.0005907604936510324,-0.015246450901031494
1772454812265306600,6.140306640625,0.004534661769866943,-0.0018552294932305813,-0.011200310662388802
1772454812275325000,6.150324951171875,-0.00000863813329488039,-0.005750726908445358,-0.006262623704969883
1772454812285342700,6.1603427734375,-0.00261986767873168,-0.009883953258395195,-0.00261968607082963
1772454812295360800,6.17036083984375,-0.004088148009032011,-0.005124946124851704,-0.0018161667976528406
1772454812305377800,6.180377685546875,-0.002282258588820696,0.0010586476419121027,-0.003794895252212882
1772454812315395800,6.190395751953125,0.0012440633727237582,0.0021471914369612932,-0.00560924643650651
1772454812325413600,6.20041357421875,0.004991663619875908,0.004075054079294205,-0.008085719309747219
1772454812335432000,6.210431884765625,0.005922709126025438,0.011439451947808266,-0.011583756655454636
1772454812345449700,6.22044970703125,0.00465451180934906,0.008616234175860882,-0.01623629964888096
1772454812355467800,6.2304677734375,0.004255741834640503,0.005684948526322842,-0.01244478952139616
1772454812365484800,6.24048486328125,0.002624289598315954,-0.0011681632604449987,0.00015009766502771527
1772454812375502800,6.2505029296875,0.005657860077917576,-0.005480695515871048,0.01056323666125536
1772454812385520600,6.260520751953125,0.00907815806567669,-0.007999779656529427,0.023550940677523613
1772454812395538700,6.27053857421875,0.007922562770545483,-0.006801842711865902,0.022781124338507652
1772454812405556700,6.280556640625,0.006387782748788595,0.004683039151132107,0.019366951659321785
1772454812415574800,6.29057470703125,0.004190227948129177,0.00868872832506895,0.017280614003539085
1772454812425592600,6.300592529296875,0.00533645274117589,0.008332131430506706,0.009382744319736958
1772454812435609900,6.31060986328125,0.0057723261415958405,0.005781060084700584,0.005010915454477072
1772454812445627600,6.320627685546875,0.006939323153346777,0.0041261715814471245,-0.0008837252389639616
1772454812455645700,6.330645751953125,0.006232250016182661,0.002266796538606286,0.0006334532517939806
1772454812465663700,6.340663818359375,0.0056314412504434586,0.0012350876349955797,0.010071695782244205
1772454812475681800,6.350681884765625,0.002236578380689025,0.006689219735562801,0.01778009533882141
1772454812485699600,6.360699462890625,0.005835307762026787,-0.0012611150741577148,0.01777024008333683
1772454812495716900,6.370716796875,0.001955664250999689,-0.0012763433624058962,0.0069185541942715645
1772454812505734700,6.380734619140625,0.0026938924565911293,-0.00520370714366436,-0.0026480527594685555
1772454812515752700,6.390752685546875,-0.0020971293561160564,0.000729244900867343,-0.009555467404425144
1772454812525770800,6.400770751953125,-0.0009692803723737597,0.0007955578621476889,-0.011198638007044792
1772454812535788800,6.410788818359375,-0.002540827728807926,0.003257021540775895,-0.010294592007994652
1772454812545806600,6.420806640625,-0.004643659573048353,0.00743099395185709,-0.007673775777220726
1772454812555823900,6.430823974609375,-0.0034916051663458347,0.009214349091053009,0.0006163382204249501
1772454812565841700,6.440841552734375,-0.002949652262032032,0.006021218374371529,0.011120111681520939
1772454812575859700,6.450859619140625,-0.0030950605869293213,0.0016251385677605867,0.019365523010492325
1772454812585877800,6.460877685546875,-0.008616060018539429,-0.0041067833080887794,0.024185845628380775
1772454812595895800,6.470895751953125,-0.012118437327444553,-0.0033154699485749006,0.024021340534090996
1772454812605913600,6.48091357421875,-0.007976955734193325,0.0050657643005251884,0.020900648087263107
1772454812615931000,6.490930908203125,-0.007997372187674046,0.01154309045523405,0.015802303329110146
1772454812625948700,6.50094873046875,-0.01028209738433361,0.010166768915951252,0.0024806377477943897
1772454812635966700,6.510966796875,-0.010200685821473598,0.004430518485605717,-0.006162875797599554
1772454812645984800,6.52098486328125,-0.009204929694533348,-0.00009712181054055691,-0.01542242057621479
1772454812656002800,6.5310029296875,-0.002299448475241661,-0.003635078202933073,-0.014440014027059078
1772454812666020600,6.5410205078125,-0.006229741964489222,-0.011390735395252705,-0.008647904731333256
1772454812676038000,6.551037841796875,-0.0083256084471941,-0.01024633925408125,-0.003484987886622548
1772454812686055700,6.5610556640625,-0.008788731880486012,-0.005599389784038067,0.0054794782772660255
1772454812696073700,6.57107373046875,-0.011628758162260056,0.0049335649237036705,0.009126882068812847
1772454812706091500,6.581091552734375,-0.013812017627060413,0.008261451497673988,0.01741357333958149
1772454812716109800,6.59110986328125,-0.010136861354112625,0.008671082556247711,0.013785789720714092
1772454812726127900,6.6011279296875,-0.0067964582704007626,0.0117329191416502,0.010371883399784565
1772454812736145000,6.611144775390625,-0.0073234569281339645,0.007864710874855518,0.009035089053213596
1772454812746162700,6.62116259765625,-0.007174585945904255,0.0002169113140553236,-0.002170427469536662
1772454812756180700,6.6311806640625,-0.004212874453514814,-0.0014281999319791794,-0.011505820788443089
1772454812766198500,6.641198486328125,-0.006309048738330603,-0.0032585905864834785,-0.01473969779908657
1772454812776216800,6.651216796875,-0.010638387873768806,0.0016244493890553713,-0.015928616747260094
1772454812786235000,6.66123486328125,-0.010269805788993835,-0.0011369823478162289,-0.012085940688848495
1772454812796251600,6.671251708984375,-0.010565674863755703,-0.006158723030239344,-0.010623284615576267
1772454812806269700,6.681269775390625,-0.009948354214429855,-0.007223721127957106,-0.006436261814087629
1772454812816287700,6.691287841796875,-0.009783868677914143,-0.00427789893001318,-0.0015574076678603888
1772454812826305500,6.701305419921875,-0.007408329285681248,0.003614112501963973,-0.005301013123244047
1772454812836323800,6.71132373046875,-0.004906859248876572,0.0077355410903692245,-0.01178803015500307
1772454812846342000,6.721341796875,-0.004797137342393398,0.008375498466193676,-0.018638212233781815
1772454812856359700,6.731359619140625,-0.007979655638337135,0.008459354750812054,-0.019594132900238037
1772454812866376700,6.741376708984375,-0.007538369856774807,0.0009742744732648134,-0.019871635362505913
1772454812876394800,6.751394775390625,-0.011995435692369938,-0.006464201025664806,-0.027089865878224373
1772454812886412800,6.761412841796875,-0.011340297758579254,-0.017608996480703354,-0.04036679118871689
1772454812896430800,6.771430908203125,-0.010839708149433136,-0.019723305478692055,-0.04391942918300629
1772454812906449000,6.781448974609375,-0.007035916205495596,-0.010706908069550991,-0.04623185098171234
1772454812916466700,6.791466796875,-0.009268669411540031,-0.004485199227929115,-0.048638440668582916
1772454812926483700,6.801483642578125,-0.00265817204490304,0.0007183512207120657,-0.0461912639439106
1772454812936501800,6.811501708984375,-0.004478040151298046,-0.003199976868927479,-0.05505438148975372
1772454812946519800,6.821519775390625,-0.0010153983021155,-0.0022516250610351562,-0.07165946066379547
1772454812956537600,6.83153759765625,0.0005236332071945071,0.003936310298740864,-0.08344212919473648
1772454812966556000,6.841555908203125,-0.0018873265944421291,0.0012547734659165144,-0.08459661155939102
1772454812976573700,6.85157373046875,-0.006699744611978531,-0.009956629946827888,-0.07201794534921646
1772454812986591000,6.861591064453125,-0.0020546591840684414,-0.008894029073417187,-0.052136920392513275
1772454812996609000,6.871609130859375,-0.0023430748842656612,-0.0016401507891714573,-0.032338693737983704
1772454813006626800,6.881626708984375,-0.002377962227910757,0.008808761835098267,-0.015401518903672695
1772454813016644900,6.891644775390625,-0.005140996538102627,0.002263284521177411,-0.0018513808026909828
1772454813026663000,6.901662841796875,-0.0007182847475633025,0.007107308134436607,0.011709967628121376
1772454813036681000,6.911680908203125,0.00004310568328946829,0.003382432973012328,0.016106000170111656
1772454813046697700,6.92169775390625,-0.0015659761847928166,-0.004173487890511751,0.019588882103562355
1772454813056716000,6.931716064453125,0.0022017003502696753,-0.00438135489821434,0.017627011984586716
1772454813066733800,6.94173388671875,0.007211372721940279,-0.0008241708856076002,0.011651678942143917
1772454813076752000,6.951751953125,0.0053332713432610035,-0.00020315195433795452,0.007938055321574211
1772454813086770000,6.96177001953125,0.003408072516322136,-0.0016311388462781906,0.0017997357062995434
1772454813096788000,6.9717880859375,0.0011607558699324727,-0.0036897065583616495,-0.0005940857226960361
1772454813106804700,6.9818046875,0.00422312505543232,-0.0002875181380659342,0.0009572056005708873
1772454813116823000,6.991822998046875,-0.0006615144666284323,-0.002081669867038727,0.005597351584583521
1772454813126840800,7.0018408203125,-0.0015885608736425638,-0.006427948363125324,0.007253305055201054
1772454813136859000,7.01185888671875,0.003208853304386139,-0.008283862844109535,0.005274818744510412
1772454813146877000,7.021876953125,0.003128958400338888,-0.003661148250102997,-0.002020911080762744
1772454813156895000,7.03189501953125,0.004344073124229908,-0.00044221431016921997,-0.007288894150406122
1772454813166911700,7.041911865234375,0.004134748596698046,0.006727547384798527,-0.0053469170816242695
1772454813176930000,7.051929931640625,0.0045875865034759045,0.0104641392827034,0.0017478041118010879
1772454813186947800,7.06194775390625,0.0030554700642824173,0.012257512658834457,0.008535136468708515
1772454813196966000,7.0719658203125,0.003333362750709057,0.004686467349529266,0.01623709127306938
1772454813206983700,7.081983642578125,0.004430052358657122,0.005996210500597954,0.023722438141703606
1772454813217002000,7.092001953125,0.004834054037928581,0.010073776356875896,0.01964966580271721
1772454813227018800,7.102018798828125,0.005189852323383093,0.009922774508595467,0.012070043943822384
1772454813237037000,7.112037109375,0.007444399408996105,0.0047697992995381355,0.005176202394068241
1772454813247054800,7.122054931640625,0.006688860245049,-0.005205869674682617,0.0031548633705824614
1772454813257073000,7.132072998046875,0.009420639835298061,-0.009785695001482964,-0.0012076692655682564
1772454813267090700,7.142090576171875,0.012473688460886478,-0.00874093733727932,-0.0017554814694449306
1772454813277109000,7.15210888671875,0.011455794796347618,-0.0067910365760326385,-0.0051226005889475346
1772454813287125800,7.162125732421875,0.00884429831057787,-0.0049489280208945274,-0.012409808114171028
1772454813297144000,7.17214404296875,0.007249581627547741,0.00030400347895920277,-0.01719079352915287
1772454813307161900,7.182161865234375,0.004021297674626112,0.004332300275564194,-0.01725870370864868
1772454813317180000,7.192179931640625,0.005698204506188631,0.0018970791716128588,-0.011322767473757267
1772454813327198000,7.202197998046875,0.004705644212663174,0.0031495641451328993,-0.01055790763348341
1772454813337216000,7.212216064453125,0.004767174366861582,0.0009736872743815184,-0.008805228397250175
1772454813347234000,7.222234130859375,0.007026067469269037,0.000842393608763814,-0.004246163181960583
1772454813357250800,7.232250732421875,0.007955103181302547,0.001092785270884633,-0.005693764425814152
1772454813367268900,7.242268798828125,0.008907982148230076,0.0009116900619119406,-0.003816768294200301
1772454813377287000,7.252286865234375,0.0054100011475384235,0.0015296114142984152,-0.0031608734279870987
1772454813387305000,7.262304931640625,0.003528211498633027,0.009015756659209728,-0.001477755606174469
1772454813397323000,7.272322998046875,-0.001120241591706872,0.0021921510342508554,-0.0033113090321421623
1772454813407341000,7.282341064453125,-0.00015750888269394636,-0.0017160377465188503,-0.007229883689433336
1772454813417357800,7.29235791015625,0.003107297234237194,-0.008340041153132915,-0.010973401367664337
1772454813427375900,7.3023759765625,0.00487510347738862,-0.00226830062456429,-0.010098286904394627
1772454813437394000,7.312393798828125,0.008619114756584167,0.002016662387177348,-0.009594779461622238
1772454813447412000,7.322411865234375,0.008967189118266106,0.011610699817538261,-0.008252546191215515
1772454813457429800,7.3324296875,0.007311806082725525,0.018629804253578186,-0.010928401723504066
1772454813467448000,7.342447998046875,0.009496662765741348,0.02293533645570278,-0.012976638972759247
1772454813477464800,7.35246484375,0.012649985030293465,0.01286399643868208,-0.013982878066599369
1772454813487483100,7.362483154296875,0.011093100532889366,0.00820958986878395,-0.017646854743361473
1772454813497501000,7.3725009765625,0.01244532223790884,0.006824193522334099,-0.02581648901104927
1772454813507519000,7.38251904296875,0.01331484504044056,0.008002376183867455,-0.024216728284955025
1772454813517536800,7.392536865234375,0.011465239338576794,0.006403914652764797,-0.023536669090390205
1772454813527555000,7.40255517578125,0.011623963713645935,0.006204710341989994,-0.009607270359992981
1772454813537571800,7.41257177734375,0.019565410912036896,0.008762504905462265,-0.006642165593802929
1772454813547590100,7.422590087890625,0.022199276834726334,0.018042022362351418,-0.004826688673347235
1772454813557608000,7.43260791015625,0.022519266232848167,0.024356544017791748,-0.008078744634985924
1772454813567626000,7.4426259765625,0.017029426991939545,0.025416748598217964,-0.0113080944865942
1772454813577643800,7.452643798828125,0.012887055985629559,0.026013575494289398,-0.018700504675507545
1772454813587662000,7.462662109375,0.012452694587409496,0.01639237254858017,-0.01956762932240963
1772454813597678800,7.472678955078125,0.005035791080445051,0.004901631735265255,-0.01993461325764656
1772454813607697000,7.48269677734375,0.0005488971364684403,-0.014031047001481056,-0.021898960694670677
1772454813617715000,7.49271484375,-0.001552296569570899,-0.018892614170908928,-0.021420013159513474
1772454813627733000,7.50273291015625,-0.0005594701506197453,-0.009256498888134956,-0.019603736698627472
1772454813637750800,7.512750732421875,0.001094217412173748,-0.002280327957123518,-0.015601950697600842
1772454813647769000,7.52276904296875,0.0001410720869898796,0.010371284559369087,-0.0032390248961746693
1772454813657785900,7.532785888671875,-0.001199910300783813,0.02399488538503647,0.004183247219771147
1772454813667804000,7.542803955078125,-0.0023285578936338425,0.02088511362671852,0.017950991168618202
1772454813677822000,7.552822021484375,-0.00016021728515625,0.010434640571475029,0.025318600237369537
1772454813687840000,7.562840087890625,-0.0002507647732272744,-0.0017210913356393576,0.023983024060726166
1772454813697857800,7.57285791015625,-0.001408480922691524,-0.012552731670439243,0.019011057913303375
1772454813707875800,7.582875732421875,-0.003712647594511509,-0.011310101486742496,0.011842094361782074
1772454813717892900,7.592892822265625,0.0012823225697502494,-0.012689530849456787,0.006083087995648384
1772454813727911000,7.602910888671875,0.002569428412243724,-0.014949755743145943,-0.0008549793274141848
1772454813737929000,7.612928955078125,0.003962486982345581,-0.0076468707993626595,-0.001066547236405313
1772454813747947000,7.622947021484375,-0.0004141518147662282,-0.0017338539473712444,-0.002325157169252634
1772454813757964800,7.63296484375,-0.0019140440272167325,0.0027162882033735514,0.002524459268897772
1772454813767982800,7.64298291015625,-0.0012426612665876746,-0.0009847066830843687,0.008234010078012943
1772454813778000000,7.652999755859375,-0.0018261551158502698,-0.010629651136696339,0.007255057338625193
1772454813788018000,7.663017822265625,-0.004942586179822683,-0.014258740469813347,0.008473187685012817
1772454813798036000,7.673035888671875,-0.007656522560864687,-0.012890154495835304,0.008231647312641144
1772454813808054000,7.683053955078125,-0.00689219543710351,-0.002759756287559867,0.0019037103047594428
1772454813818071800,7.69307177734375,-0.005214896984398365,0.0014416787307709455,-0.0010754561517387629
1772454813828089900,7.70308984375,-0.0022049923427402973,0.0018520720768719912,0.00371077680028975
1772454813838107000,7.71310693359375,-0.0006818801630288363,-0.001896372064948082,0.005906183738261461
1772454813848125000,7.723125,0.0046132830902934074,0.0021361864637583494,0.0055613042786717415
1772454813858143000,7.73314306640625,0.0046960171312093735,0.0032792279962450266,0.002989480970427394
1772454813868161000,7.7431611328125,0.003092793980613351,0.002885878784582019,0.007522181142121553
1772454813878178800,7.7531787109375,0.0006227070116437972,-0.00807778351008892,0.011019418947398663
1772454813888196900,7.76319677734375,0.0027481759898364544,-0.02046601101756096,0.012861527502536774
1772454813898214000,7.7732138671875,0.003863458288833499,-0.022908877581357956,0.006201865151524544
1772454813908232000,7.78323193359375,0.004320190288126469,-0.017802000045776367,0.0022145803086459637
1772454813918249700,7.793249755859375,0.0043320851400494576,-0.008944313041865826,0.0008449082379229367
1772454813928268000,7.80326806640625,0.000023889238946139812,0.00035651098005473614,0.007945162244141102
1772454813938285800,7.813285888671875,0.0003292267210781574,-4.1583552956581116e-7,0.01626984216272831
1772454813948304000,7.823303955078125,-0.0012713330797851086,-0.0012049637734889984,0.028471646830439568
1772454813958321000,7.83332080078125,-0.0009668383281677961,-0.004855143837630749,0.03158731013536453
1772454813968339000,7.8433388671875,-0.001772710820659995,-0.006109759211540222,0.024966159835457802
1772454813978356700,7.853356689453125,-0.005372012499719858,-0.004100699909031391,0.012664909474551678
1772454813988375000,7.863375,-0.005047639366239309,0.001652261009439826,-0.0007861844496801496
1772454813998393300,7.873393310546875,-0.0013886881060898304,0.007122993469238281,-0.013098692521452904
1772454814008411100,7.8834111328125,-0.0037903268821537495,0.00804711040109396,-0.01896856538951397
1772454814018428400,7.893428466796875,-0.0004351409152150154,-0.0018476175609976053,-0.01668981835246086
1772454814028446200,7.9034462890625,0.0002993589732795954,-0.008956393226981163,-0.010584255680441856
1772454814038464300,7.91346435546875,0.0018893114756792784,-0.019162431359291077,0.0012954443227499723
1772454814048482300,7.923482421875,-0.0006265767151489854,-0.017652153968811035,0.019262192770838737
1772454814058500400,7.933500244140625,0.001580994576215744,-0.013210688717663288,0.030172033235430717
1772454814068518100,7.94351806640625,0.008320123888552189,-0.0049828533083200455,0.03661741688847542
1772454814078536200,7.9535361328125,0.006768086925148964,0.009876162745058537,0.031397271901369095
1772454814088553200,7.96355322265625,0.004647411406040192,0.01471619214862585,0.023142008110880852
1772454814098571300,7.9735712890625,0.0035330546088516712,0.015024865977466106,0.005858615972101688
1772454814108589000,7.983589111328125,0.0010307483607903123,0.010472457855939865,-0.012050875462591648
1772454814118607400,7.993607421875,0.0017582789296284318,0.004660116508603096,-0.01653391122817993
1772454814128625200,8.003625244140625,-0.0004137952346354723,-0.009418951347470284,-0.017087049782276154
1772454814138642400,8.013642333984375,-0.002826979383826256,-0.018612926825881004,-0.016957120969891548
1772454814148660200,8.02366015625,-0.004069610498845577,-0.014099933207035065,-0.016152312979102135
1772454814158678300,8.03367822265625,-0.007024724967777729,-0.008819560520350933,-0.006091862916946411
1772454814168696000,8.043696044921875,-0.006980249658226967,-0.006539362017065287,-0.0016965816030278802
1772454814178714400,8.05371435546875,-0.005242593586444855,-0.008558491244912148,-0.0044656600803136826
1772454814188732200,8.063732177734375,-0.003022316377609968,-0.0012648918200284243,-0.017358290031552315
1772454814198749200,8.073749267578124,0.00001676392275840044,0.01039540208876133,-0.027615787461400032
1772454814208767200,8.083767333984374,0.0005882783443666995,0.010197795927524567,-0.0339362658560276
1772454814218785300,8.093785400390624,-0.0029552048072218895,0.00475544948130846,-0.03363925591111183
1772454814228803000,8.103802978515626,-0.002317644190043211,-0.008061811327934265,-0.028652489185333252
1772454814238821400,8.1138212890625,-0.0003437038976699114,-0.01339562889188528,-0.017770521342754364
1772454814248839200,8.123839111328126,-0.004249762278050184,-0.014693653210997581,-0.006822532508522272
1772454814258857200,8.133857177734376,-0.004367167595773935,-0.017103781923651695,0.00025706057203933597
1772454814268874200,8.143874267578125,-0.0022821787279099226,-0.010891692712903023,0.0027748129796236753
1772454814278892300,8.153892333984375,0.00036091404035687447,-0.005973312072455883,-0.0023083954583853483
1772454814288910000,8.16391015625,0.004065637476742268,-0.005955202504992485,-0.01597627066075802
1772454814298928400,8.173928466796875,0.003815616015344858,-0.00622795894742012,-0.02389102429151535
1772454814308946200,8.1839462890625,0.002476844936609268,-0.004871611017733812,-0.02786845527589321
1772454814318964200,8.193964111328125,0.0018847840838134289,-0.008994748815894127,-0.026857631281018257
1772454814328981200,8.203981201171874,0.0035932017490267754,-0.014283253811299801,-0.02157684974372387
1772454814338999300,8.213999267578124,0.0013266708701848984,-0.008902577683329582,-0.016412995755672455
1772454814349017000,8.22401708984375,-0.0027469005435705185,-0.000897115794941783,-0.005861285608261824
1772454814359035100,8.23403515625,-0.006226717494428158,0.000012866687029600143,0.0016465778462588787
1772454814369053200,8.24405322265625,-0.008687211200594902,0.0004232598003000021,0.004751823842525482
1772454814379071200,8.2540712890625,-0.007222733926028013,-0.0004945017863065004,0.004985675681382418
1772454814389088300,8.264088134765625,-0.00565546378493309,0.004016360267996788,0.0011424676049500704
1772454814399106300,8.274106201171875,-0.005619069095700979,0.0038861434441059828,-0.0013382756151258945
1772454814409124000,8.2841240234375,-0.005371927749365568,-0.00429082615301013,-0.0026184571906924248
1772454814419142100,8.29414208984375,-0.0032129166647791862,-0.00363610009662807,-0.006296890787780285
1772454814429160400,8.304160400390625,-0.004560476168990135,0.0057283733040094376,-0.006905955728143454
1772454814439178200,8.31417822265625,-0.003779578022658825,0.007414560765028,-0.00577043741941452
1772454814449195300,8.3241953125,-0.0018123012268915772,0.005309064872562885,-0.003905691672116518
1772454814459213300,8.33421337890625,-0.0038442020304501057,0.003967618569731712,-0.0016340065049007535
1772454814469231000,8.344231201171874,-0.008474107831716537,-0.006211781874299049,-0.00020255745039321482
1772454814479249200,8.354249267578124,-0.010234905406832695,-0.006480204872786999,-0.006089226342737675
1772454814489267500,8.364267333984374,-0.01237528771162033,0.002256827661767602,-0.018042825162410736
1772454814499285200,8.37428515625,-0.01375663373619318,0.006617026403546333,-0.025350186973810196
1772454814509302000,8.384302001953126,-0.01318192295730114,0.004182364791631699,-0.023303547874093056
1772454814519320300,8.3943203125,-0.013469365425407887,-0.0016499848570674658,-0.019226497039198875
1772454814529338400,8.40433837890625,-0.015546097420156002,-0.0028092588763684034,-0.017173999920487404
1772454814539356200,8.414356201171875,-0.016099145635962486,0.0005644203629344702,-0.007406580727547407
1772454814549374500,8.42437451171875,-0.014332937076687813,-0.005536349024623632,0.002307565649971366
1772454814559392300,8.434392333984375,-0.0171950813382864,-0.0006419848650693893,0.011964050121605396
1772454814569409000,8.444408935546875,-0.013108993880450726,0.010898291133344173,0.02562446892261505
1772454814579427300,8.45442724609375,-0.014361342415213585,0.009428738616406918,0.030175425112247467
1772454814589445400,8.4644453125,-0.01439090259373188,0.016840582713484764,0.03361356258392334
1772454814599463200,8.474463134765625,-0.015294916927814484,0.018594026565551758,0.03212098404765129
1772454814609481200,8.484481201171874,-0.01642090082168579,0.009517175145447254,0.022106966003775597
1772454814619499300,8.494499267578124,-0.018319865688681602,0.0034448823425918818,0.003696412779390812
1772454814629516300,8.504516357421876,-0.01847992092370987,-0.006823201663792133,-0.010562684386968613
1772454814639534300,8.514534423828126,-0.018759330734610558,-0.009690087288618088,-0.014027860015630722
1772454814649552400,8.524552490234376,-0.014508926309645176,-0.005417312029749155,-0.007208836730569601
1772454814659570200,8.534570068359375,-0.011626632884144783,-0.005119830369949341,0.007608854211866856
1772454814669588200,8.544588134765625,-0.014771826565265656,0.0004272677469998598,0.01699330098927021
1772454814679606300,8.554606201171875,-0.013341221027076244,0.0028022814076393843,0.02827218361198902
1772454814689623300,8.564623291015625,-0.013743625022470951,0.009697738103568554,0.0275371503084898
1772454814699641300,8.574641357421875,-0.01243832428008318,0.013310075737535954,0.021447017788887024
1772454814709659400,8.584659423828125,-0.012385061010718346,0.008290817029774189,0.00989582296460867
1772454814719677200,8.59467724609375,-0.0070442561991512775,0.004361766390502453,-0.004494241904467344
1772454814729695200,8.6046953125,-0.0041832225397229195,-0.0023888142313808203,-0.017088862136006355
1772454814739713300,8.61471337890625,-0.002471713814884424,-0.006721646059304476,-0.026427587494254112
1772454814749730300,8.624730224609374,-0.00339476577937603,-0.004514418076723814,-0.0322420671582222
1772454814759748000,8.634748046875,-0.0023811128921806812,-0.005104663781821728,-0.031521495431661606
1772454814769766400,8.644766357421876,-0.0022769831120967865,-0.008136406540870667,-0.028125964105129242
1772454814779784200,8.6547841796875,-0.002224116586148739,-0.008680508472025394,-0.018168525770306587
1772454814789802200,8.66480224609375,0.00019296829123049974,-0.005250090733170509,-0.011514617130160332
1772454814799820300,8.6748203125,0.0025167125277221203,-0.0053971149027347565,-0.007729587145149708
1772454814809837300,8.68483740234375,-0.000950456946156919,-0.0014255428686738014,-0.009192194789648056
1772454814819855000,8.694855224609375,0.0012635590974241495,0.003075749846175313,-0.02198297157883644
1772454814829873400,8.704873291015625,0.00259727006778121,0.004939429461956024,-0.027048304677009583
1772454814839891200,8.71489111328125,-0.0033535179682075977,0.0021138100419193506,-0.03167327865958214
1772454814849909200,8.7249091796875,-0.004069908522069454,-0.002577348379418254,-0.025753337889909744
1772454814859927300,8.73492724609375,-0.004411234986037016,-0.0031773701775819063,-0.02029038593173027
1772454814869944300,8.7449443359375,-0.0065617370419204235,0.0010227009188383818,-0.008923215791583061
1772454814879962000,8.754962158203124,-0.005560263525694609,0.005787151865661144,0.007645202334970236
1772454814889980400,8.76498046875,-0.0040278807282447815,0.010593358427286148,0.015647469088435173
1772454814899998200,8.774998291015624,-0.00234201829880476,0.011560688726603985,0.015172053128480911
1772454814910016300,8.785016357421876,-0.004129265435039997,0.015479263849556446,0.013186134397983551
1772454814920034000,8.795033935546876,-0.002496778964996338,0.013508942909538746,-0.0013553198659792542
1772454814930051300,8.80505126953125,-0.005931457970291376,0.006660358980298042,-0.011447635479271412
1772454814940069000,8.815069091796875,-0.006025285925716162,0.0031044825445860624,-0.021753784269094467
1772454814950087400,8.82508740234375,-0.008593904785811901,0.00680174957960844,-0.025953855365514755
1772454814960105200,8.835105224609375,-0.009487139992415905,0.01203333679586649,-0.02672276273369789
1772454814970123300,8.845123291015625,-0.010730303823947906,0.013648544438183308,-0.02520236372947693
1772454814980141000,8.85514111328125,-0.00957000907510519,0.022713949903845787,-0.024552956223487854
1772454814990158300,8.865158447265625,-0.008558540605008602,0.028539882972836494,-0.023276768624782562
1772454815000175900,8.87517578125,-0.007016131654381752,0.023873280733823776,-0.016199983656406403
1772454815010194200,8.885194091796874,-0.0032560150139033794,0.016269955784082413,-0.013499804772436619
1772454815020212000,8.8952119140625,0.002911296673119068,0.013479952700436115,-0.008295809850096703
1772454815030230000,8.90522998046875,0.003920368850231171,0.011519066989421844,-0.004837695509195328
1772454815040247800,8.915247802734376,0.004103066865354776,0.008013511076569557,-0.015035978518426418
1772454815050265000,8.92526513671875,0.003842609468847513,0.010577868670225143,-0.02230534330010414
1772454815060283000,8.935282958984375,-0.000176949892193079,0.012837337329983711,-0.0270368792116642
1772454815070301000,8.945301025390625,0.0033373574260622263,0.01009295042604208,-0.028499752283096313
1772454815080319000,8.955319091796875,-0.00018279755022376776,0.011712878942489624,-0.029225943610072136
1772454815090337000,8.9653369140625,0.004110750742256641,0.014545949175953865,-0.022948073223233223
1772454815100354800,8.975354736328125,0.0013069633860141039,0.010453542694449425,-0.017510484904050827
1772454815110372000,8.9853720703125,-0.0002754868473857641,0.007676398381590843,-0.0195067897439003
1772454815120390000,8.995389892578125,0.0072031570598483086,-0.004847376141697168,-0.018874427303671837
1772454815130408000,9.005407958984375,0.007787454407662153,-0.011898094788193703,-0.0178776066750288
1772454815140426000,9.015426025390624,0.007437077816575766,-0.017521943897008896,-0.023171136155724525
1772454815150444000,9.025444091796874,0.004974452778697014,-0.010223549790680408,-0.02138788439333439
1772454815160461800,9.0354619140625,0.0015562857734039426,-0.0022569699212908745,-0.01851646415889263
1772454815170479000,9.04547900390625,-0.0014695978024974465,0.004455260932445526,-0.010785041376948357
1772454815180497000,9.055496826171876,-0.00023132364731281996,0.002448353683575988,-0.003313576802611351
1772454815190515000,9.065514892578125,0.0031226612627506256,-0.0032436205074191093,0.003966706804931164
1772454815200533000,9.075532958984375,0.00220253923907876,0.0012805575970560312,0.009587574750185013
1772454815210551000,9.085551025390625,0.00045390764717012644,-0.00007951888255774975,0.015872366726398468
1772454815220568800,9.09556884765625,-0.0027356245554983616,0.003537833457812667,0.0116428816691041
1772454815230586000,9.105586181640625,-0.0013350682565942407,0.00614959467202425,0.00665291678160429
1772454815240604000,9.11560400390625,0.0027995402924716473,0.011182660236954689,0.0008902662666514516
1772454815250622000,9.1256220703125,-0.0010151717578992248,0.015185391530394554,-0.0006413176888599992
1772454815260640000,9.135639892578125,-0.00139428093098104,0.005179418250918388,0.0004458787152543664
1772454815270658000,9.145657958984375,-0.002360209356993437,-0.00020575919188559055,-0.0015240615466609597
1772454815280675800,9.15567578125,-0.0015605870867148042,0.006466468796133995,-0.004984400700777769
1772454815290693000,9.165693115234374,-0.009122632443904877,0.0238350722938776,-0.006232091691344976
1772454815300711000,9.1757109375,-0.023881569504737854,0.04212040826678276,-0.002168022096157074
1772454815310729000,9.18572900390625,-0.02421819418668747,0.03704895079135895,-0.00015360710676759481
1772454815320747000,9.1957470703125,-0.012305467389523983,0.020212652161717415,0.01368807815015316
1772454815330765000,9.20576513671875,-0.018662434071302414,0.005211865529417992,0.0239857230335474
1772454815340782800,9.215782958984375,-0.022512171417474747,-0.001679006265476346,0.027254048734903336
1772454815350800100,9.225800048828125,-0.019488953053951263,-0.007959272712469101,0.016132155433297157
1772454815360818000,9.23581787109375,-0.015006093308329582,-0.018835389986634254,0.0024399333633482456
1772454815370836000,9.2458359375,-0.015569884330034256,-0.024779297411441803,-0.0049167824909091
1772454815380854000,9.25585400390625,-0.015005786903202534,-0.02811966836452484,-0.012665936723351479
1772454815390872000,9.2658720703125,-0.014975694008171558,-0.014354321174323559,-0.018120888620615005
1772454815400890000,9.27589013671875,-0.014100171625614166,-0.003071098355576396,-0.02409818395972252
1772454815410907100,9.2859072265625,-0.01442188210785389,-0.004589100368320942,-0.019513284787535667
1772454815420925000,9.295925048828124,-0.012062950059771538,-0.013500252738595009,-0.015058116987347603
1772454815430943000,9.30594287109375,-0.009311105124652386,-0.01825292967259884,-0.010154970921576023
1772454815440960800,9.315960693359376,-0.009263122454285622,-0.025103919208049774,-0.0010835747234523296
1772454815450979000,9.32597900390625,-0.010973405092954636,-0.029730629175901413,0.008186089806258678
1772454815460997000,9.3359970703125,-0.008201008662581444,-0.024758245795965195,0.015978902578353882
1772454815471014100,9.34601416015625,-0.007807926740497351,-0.023274865001440048,0.021890055388212204
1772454815481032000,9.356031982421875,-0.009771866723895073,-0.013562905602157116,0.018776459619402885
1772454815491050000,9.366050048828125,-0.010984404012560844,-0.010203061625361443,0.01921907812356949
1772454815501067800,9.37606787109375,-0.01150292158126831,-0.009323152713477612,0.01935090310871601
1772454815511086000,9.386086181640625,-0.014588460326194763,-0.014012979343533516,0.014034435153007507
1772454815521104100,9.396104248046875,-0.015507341362535954,-0.022090869024395943,0.013831227086484432
1772454815531121000,9.406120849609374,-0.01761896163225174,-0.01954861544072628,0.013653860427439213
1772454815541139000,9.416138916015624,-0.01911260187625885,-0.012712223455309868,0.011385207995772362
1772454815551157000,9.426156982421874,-0.015845436602830887,-0.012473604641854763,0.007895668037235737
1772454815561175000,9.436175048828124,-0.013921876437962055,-0.012484821490943432,0.007746419403702021
1772454815571193000,9.446193115234376,-0.008995560929179192,-0.016827905550599098,0.009886269457638264
1772454815581211100,9.456211181640626,-0.008404559455811977,-0.02269245870411396,0.014756795950233936
1772454815591228000,9.466227783203125,-0.007282037287950516,-0.022517487406730652,0.012541578151285648
1772454815601246000,9.476245849609375,-0.007609971798956394,-0.019666213542222977,0.009682349860668182
1772454815611264000,9.486263916015625,-0.006352960132062435,-0.016446717083454132,0.008071670308709145
1772454815621282000,9.496281982421875,-0.0062441229820251465,-0.01037660427391529,-0.002315707039088011
1772454815631300000,9.506300048828125,-0.008127243258059025,0.0011668677907437086,-0.006606059614568949
1772454815641318100,9.516318115234375,-0.011846513487398624,0.0014328279066830873,-0.008768752217292786
1772454815651335000,9.5263349609375,-0.006884779315441847,-0.0043630097061395645,-0.0008383915992453694
1772454815661353200,9.536353271484375,-0.003836433868855238,-0.004238917957991362,0.0026793871074914932
1772454815671371000,9.54637109375,-0.005183993373066187,-0.004500706680119038,0.013805274851620197
1772454815681389000,9.55638916015625,-0.0019729449413716793,0.0008510167244821787,0.023446381092071533
1772454815691406800,9.56640673828125,-0.0022507128305733204,0.0005993477534502745,0.019415685907006264
1772454815701425200,9.576425048828124,-0.0014538950053974986,-0.0038358804304152727,0.012035535648465157
1772454815711442000,9.58644189453125,0.0011099301045760512,-0.001888577127829194,0.0015035324031487107
1772454815721460200,9.596460205078126,0.003919672220945358,-0.004620571155101061,-0.002296444959938526
1772454815731478000,9.60647802734375,0.004337255842983723,-0.00702141085639596,-0.004600877873599529
1772454815741496000,9.61649609375,0.005192832089960575,-0.013955703936517239,0.004451702814549208
1772454815751513900,9.626513916015625,0.007442138157784939,-0.014354645274579525,0.009380148723721504
1772454815761532200,9.6365322265625,0.003967863507568836,-0.011536464095115662,0.016385577619075775
1772454815771549000,9.646548828125,-0.0017797708278521895,-0.01119664404541254,0.021271944046020508
1772454815781567000,9.65656689453125,-0.0014844263205304742,-0.00978383794426918,0.01774219051003456
1772454815791585000,9.6665849609375,0.005847522057592869,-0.004981625359505415,0.013787396252155304
1772454815801603000,9.67660302734375,0.005317146889865398,-0.002611085306853056,0.007899775169789791
1772454815811620900,9.686620849609374,0.004425520543009043,-0.003381271380931139,0.007357555441558361
1772454815821639200,9.69663916015625,0.0053454311564564705,-0.004181636497378349,-0.0022546695545315742
1772454815831656000,9.706656005859376,0.009878930635750294,-0.001881198026239872,-0.011217005550861359
1772454815841674000,9.716674072265626,0.00838400237262249,-0.0017804796807467937,-0.014971298165619373
1772454815851692000,9.726692138671876,0.0074740005657076836,-0.0011128252372145653,-0.020363667979836464
1772454815861710000,9.7367099609375,0.009155520237982273,-0.00008005136623978615,-0.01453453954309225
1772454815871727900,9.746727783203125,0.004519755486398935,-0.00625459011644125,-0.014330540783703327
1772454815881746200,9.75674609375,-0.00024996581487357616,-0.006747807841747999,-0.0056254668161273
1772454815891763000,9.766762939453125,0.002253139391541481,-0.0007114869076758623,-0.005696839652955532
1772454815901781000,9.776781005859375,0.0048071108758449554,0.01037605106830597,-0.006830280646681786
1772454815911799000,9.786799072265625,0.00551098445430398,0.02150566875934601,-0.01721820794045925
1772454815921817000,9.796817138671875,0.0035223220475018024,0.02478635311126709,-0.02900744415819645
1772454815931835000,9.8068349609375,0.003964673262089491,0.014661813154816628,-0.04863680526614189
1772454815941853000,9.81685302734375,0.009987397119402885,-0.003390304744243622,-0.06841111928224564
1772454815951870000,9.826869873046874,0.0060102324932813644,-0.01915035955607891,-0.07252304255962372
1772454815961888000,9.836887939453124,-0.0013168681180104613,-0.027394795790314674,-0.06019774451851845
1772454815971906000,9.846906005859376,0.0014155351091176271,-0.02363627590239048,-0.03686073049902916
1772454815981924000,9.856924072265626,0.004597073420882225,-0.017697367817163467,-0.013050909154117107
1772454815991942000,9.86694189453125,0.004035678692162037,-0.0023900503292679787,0.006482844706624746
1772454816001959700,9.876959716796875,0.0027045051101595163,0.011225834488868713,0.020984459668397903
1772454816011976700,9.886976806640625,0.0006099289166741073,0.017372941598296165,0.027026638388633728
1772454816021994500,9.896994384765625,0.004711865447461605,0.012670048512518406,0.026038752868771553
1772454816032012800,9.9070126953125,0.006744922138750553,0.010093173012137413,0.02320142090320587
1772454816042030600,9.917030517578125,0.005930743645876646,0.0015617806930094957,0.01562776044011116
1772454816052048600,9.927048583984375,0.005614093970507383,-0.001034002285450697,0.01611059159040451
1772454816062066400,9.93706640625,0.009517891332507133,-0.008770771324634552,0.017512626945972443
1772454816072083700,9.947083740234374,0.013819961808621883,-0.015479540452361107,0.015645749866962433
1772454816082101500,9.9571015625,0.01206289790570736,-0.010540453717112541,0.008733258582651615
1772454816092119800,9.967119873046874,0.010947033762931824,-0.012809733860194683,0.0032998768147081137
1772454816102137600,9.9771376953125,0.013727152720093727,-0.010613697580993176,0.0021679047495126724
1772454816112155600,9.98715576171875,0.009423218667507172,-0.009420600719749928,0.003250213572755456
1772454816122173400,9.99717333984375,0.006181970238685608,-0.00967277679592371,-0.0012369640171527863
1772454816132190700,10.007190673828125,0.005859461147338152,-0.004616499412804842,-0.0014380327193066478
1772454816142208500,10.01720849609375,0.005040810909122229,-0.004748629406094551,-0.010415256023406982
1772454816152226600,10.0272265625,0.0026407702825963497,-0.005817621946334839,-0.016077136620879173
1772454816162244600,10.03724462890625,-0.00023522262927144766,-0.0012628119438886642,-0.018350549042224884
1772454816172262700,10.0472626953125,-0.0025977129116654396,-0.005566746927797794,-0.014108399860560894
1772454816182280400,10.057280517578125,-0.008445612154901028,-0.00928134098649025,-0.008736656978726387
1772454816192297700,10.067297607421875,-0.004945951979607344,-0.02017739787697792,-0.0036550795193761587
1772454816202315500,10.0773154296875,-0.004266594536602497,-0.020385807380080223,0.0034829145297408104
1772454816212333600,10.08733349609375,-0.003262050449848175,-0.02282446250319481,0.005780423525720835
1772454816222351600,10.0973515625,-0.003537195734679699,-0.012512206099927425,0.006553160026669502
1772454816232369700,10.10736962890625,-0.0031550321727991104,0.0009649863932281733,0.0020196610130369663
1772454816242387500,10.117387451171876,-0.003944733180105686,0.006205189973115921,0.0065662795677781105
1772454816252404700,10.12740478515625,-0.0023076883517205715,0.005724756047129631,0.008444074541330338
1772454816262422500,10.137422607421875,-0.0007410416146740317,0.0005843329709023237,0.014196227304637432
1772454816272440600,10.147440673828125,-0.002836949657648802,-0.007814211770892143,0.012750397436320782
1772454816282458600,10.157458740234375,0.005408100783824921,-0.007588860113173723,0.01977950893342495
1772454816292476700,10.1674765625,0.012459885329008102,-0.00394512340426445,0.01947377808392048
1772454816302494500,10.177494384765625,0.009650873020291328,-0.0027821329422295094,0.020921479910612106
1772454816312511700,10.18751171875,0.009309455752372742,-0.0002436076756566763,0.017538467422127724
1772454816322529500,10.197529541015625,0.011273934505879879,-0.009998481720685959,0.015268242917954922
1772454816332547600,10.207547607421875,0.012977824546396732,-0.014178579673171043,0.005556493066251278
1772454816342565600,10.217565673828124,0.014749002642929554,-0.016080329194664955,-0.006148107815533876
1772454816352583700,10.227583740234374,0.019553877413272858,-0.016905376687645912,-0.01443373505026102
1772454816362600400,10.237600341796876,0.023321809247136116,-0.008970768190920353,-0.010559625923633575
1772454816372618800,10.24761865234375,0.025917593389749527,-0.007067939266562462,-0.006591249722987413
1772454816382636500,10.257636474609376,0.023418571799993515,0.001259486423805356,0.0008498973911628127
1772454816392654600,10.267654541015625,0.01929519884288311,0.0008504248689860106,0.002502122661098838
1772454816402672600,10.277672607421875,0.015417823567986488,0.0024631766136735678,0.0025791325606405735
1772454816412690700,10.287690673828125,0.013173045590519905,-0.0020729857496917248,-0.0007849725661799312
1772454816422707500,10.29770751953125,0.010425004176795483,-0.005205031484365463,-0.0025057110469788313
1772454816432725800,10.307725830078125,0.006801773328334093,-0.002353851217776537,-0.010428349487483501
1772454816442743600,10.31774365234375,0.005749523639678955,0.010185306891798973,-0.008206026628613472
1772454816452761600,10.32776171875,0.003918600268661976,0.019386261701583862,-0.003110334277153015
1772454816462779600,10.337779541015625,0.004164273850619793,0.02085634507238865,0.005774623714387417
1772454816472797700,10.347797607421874,0.0011969800107181072,0.009921937249600887,0.012613355182111263
1772454816482814500,10.357814453125,0.0009745156858116388,0.007446542382240295,0.017214754596352577
1772454816492832800,10.367832763671874,0.001316998153924942,0.005419078283011913,0.01856284774839878
1772454816502850600,10.3778505859375,0.0009515726706013083,0.005126898176968098,0.016827421262860298
1772454816512868600,10.38786865234375,0.0013079036725685,0.006950897164642811,0.015013275668025017
1772454816522886400,10.397886474609376,0.0024200340267270803,0.012126787565648556,0.013245975598692894
1772454816532904700,10.40790478515625,-0.004224819131195545,0.015326575376093388,0.009085851721465588
1772454816542921500,10.41792138671875,-0.003753115888684988,0.0025569091085344553,0.0029032486490905285
1772454816552939800,10.427939697265625,0.0005332418368197978,-0.015310505405068398,-0.005920869298279285
1772454816562957600,10.43795751953125,-0.0009212582372128963,-0.023312149569392204,-0.014972887001931667
1772454816572975600,10.4479755859375,-0.0025364654138684273,-0.019952837377786636,-0.030587533488869667
1772454816582993400,10.457993408203125,-0.0024896664544939995,-0.0034043157938867807,-0.03084711916744709
1772454816593011700,10.46801171875,-0.002678218763321638,0.004054133780300617,-0.029454020783305168
1772454816603028500,10.478028564453124,-0.0014517545932903886,0.010821281932294369,-0.025797013193368912
1772454816613046500,10.488046630859374,0.00023589050397276878,0.007375683635473251,-0.01922539807856083
1772454816623064600,10.498064697265624,-0.000698080169968307,0.0034541788045316935,-0.013982964679598808
1772454816633082600,10.50808251953125,0.0014004908734932542,-0.0044024125672876835,-0.006598018575459719
1772454816643100700,10.5181005859375,-0.0008387797279283404,-0.012239053845405579,-0.0035564047284424305
1772454816653118700,10.52811865234375,-0.0005255918949842453,-0.013736548833549023,-0.006538345944136381
1772454816663135500,10.538135498046875,-0.003442206420004368,-0.01053483597934246,-0.002465085359290242
1772454816673153500,10.548153564453125,-0.0035524615086615086,-0.0036441730335354805,0.0073739634826779366
1772454816683171600,10.558171630859375,-0.002526249270886183,0.0032549628522247076,0.022329511120915413
1772454816693189600,10.568189697265625,-0.003319871611893177,0.0055615259334445,0.029271841049194336
1772454816703207700,10.578207763671875,-0.003880607895553112,0.0029756531585007906,0.024131767451763153
1772454816713225700,10.588225830078125,0.0022691634949296713,0.013746807351708412,0.009241234511137009
1772454816723242500,10.598242431640625,-0.0025628390721976757,0.02799745835363865,-0.00842981692403555
1772454816733260500,10.608260498046874,-0.010646597482264042,0.020642606541514397,-0.014490372501313686
1772454816743278600,10.618278564453124,-0.0039185043424367905,0.008896864019334316,-0.023325718939304352
1772454816753296600,10.628296630859374,0.0067317429929971695,0.027201568707823753,-0.017443062737584114
1772454816763314700,10.638314697265624,0.005735019221901894,0.039677370339632034,-0.005950154736638069
1772454816773332500,10.64833251953125,0.0003586295060813427,0.01211525034159422,0.006537407636642456
1772454816783349500,10.658349609375,0.005616144742816687,0.005170036107301712,0.016193993389606476
1772454816793367600,10.668367431640625,0.005765814334154129,0.01767411082983017,0.00806522648781538
1772454816803385900,10.6783857421875,-0.0077261412516236305,0.03277948126196861,0.04012562707066536
1772454816813403600,10.688403564453125,-0.037341825664043427,-0.026825791224837303,0.0533844418823719
1772454816823421700,10.698421630859375,-0.011471306905150414,-0.059575457125902176,0.052352309226989746
1772454816833439500,10.708439453125,0.02349679544568062,-0.03583550825715065,0.04154307022690773
1772454816843456500,10.71845654296875,0.0013660513795912266,-0.02802121266722679,0.03450602665543556
1772454816853474600,10.728474609375,-0.009157163091003895,-0.01531899906694889,0.007758301682770252
1772454816863492600,10.73849267578125,0.0031089033000171185,0.011401355266571045,-0.03576844930648804
1772454816873510700,10.7485107421875,0.011168427765369415,0.029138008132576942,-0.08072660118341446
1772454816883528700,10.75852880859375,0.0070104459300637245,0.040350109338760376,-0.10103288292884827
1772454816893546500,10.76854638671875,-0.001949493307620287,0.03780599310994148,-0.07442950457334518
1772454816903563800,10.778563720703126,-0.022885674610733986,0.001723923021927476,-0.02145286463201046
1772454816913581600,10.78858154296875,-0.026507040485739708,-0.0474630631506443,0.03222527727484703
