time,seconds_elapsed,z,y,x
1772454806189482800,0.064482666015625,-0.00890694186091423,0.02304673008620739,0.05772747844457626
1772454806199500500,0.07450048828125,-0.010585266165435314,0.03310602158308029,0.0630631223320961
1772454806209518600,0.0845185546875,-0.012072375044226646,0.02713388204574585,0.0464969277381897
1772454806219536600,0.09453662109375,-0.008887767791748047,0.007724498864263296,0.022731145843863487
1772454806229554700,0.1045546875,-0.0018002968281507492,-0.00998951680958271,-0.0020658141002058983
1772454806239572500,0.114572509765625,-0.004307929426431656,-0.022042717784643173,-0.025050491094589233
1772454806249589800,0.12458984375,-0.003154514357447624,-0.020114323124289513,-0.03437208756804466
1772454806259607600,0.134607666015625,-0.007006510626524687,-0.013049488887190819,-0.034029338508844376
1772454806269625600,0.14462548828125,-0.015414110384881496,-0.009036637842655182,-0.026851586997509003
1772454806279643600,0.1546435546875,-0.016805877909064293,-0.0020543625578284264,-0.018267421051859856
1772454806289661700,0.16466162109375,-0.025595640763640404,0.016394952312111855,-0.006896521896123886
1772454806299679500,0.174679443359375,-0.02918451651930809,0.01667165383696556,0.00296303303912282
1772454806309697500,0.184697509765625,-0.031955536454916,0.010145312175154686,0.007860319688916206
1772454806319714600,0.194714599609375,-0.0303959883749485,0.0006149238906800747,0.012114719487726688
1772454806329732600,0.204732666015625,-0.030419157817959785,-0.013236177153885365,0.006959639023989439
1772454806339750700,0.214750732421875,-0.029930735006928444,-0.022492259740829468,-0.0010498181218281388
1772454806349768700,0.224768798828125,-0.029219936579465866,-0.019931895658373833,-0.010063286870718002
1772454806359786500,0.234786376953125,-0.025740250945091248,-0.010097108781337738,-0.010787134058773518
1772454806369804500,0.244804443359375,-0.021976405754685402,-0.009176986292004585,-0.008332232013344765
1772454806379821600,0.254821533203125,-0.011834288947284222,-0.01101643219590187,-0.011797537095844746
1772454806389839600,0.264839599609375,-0.008833705447614193,-0.008070443756878376,-0.016688432544469833
1772454806399857400,0.274857421875,-0.0062128882855176926,-0.004285558592528105,-0.028732312843203545
1772454806409875700,0.284875732421875,-0.009552226401865482,-0.00014061490946915,-0.0301981158554554
1772454806419893500,0.2948935546875,-0.015469237230718136,0.0010988202411681414,-0.027606327086687088
1772454806429911600,0.30491162109375,-0.01974334381520748,0.0057710702531039715,-0.02305285446345806
1772454806439929600,0.3149296875,-0.023547669872641563,0.0032261533197015524,-0.014598649926483631
1772454806449947600,0.32494775390625,-0.025373267009854317,0.0004966795677319169,-0.009917079471051693
1772454806459964400,0.33496435546875,-0.02786385454237461,-0.003318032482638955,-0.0018253305461257696
1772454806469982700,0.344982666015625,-0.02912725880742073,-0.0006229133578017354,0.002582201035693288
1772454806480000800,0.355000732421875,-0.02406512200832367,0.0029401297215372324,0.00908723846077919
1772454806490018600,0.3650185546875,-0.026264360174536705,0.005517270881682634,0.008068312890827656
1772454806500036600,0.37503662109375,-0.03032381646335125,0.007466171868145466,0.002027997048571706
1772454806510054700,0.3850546875,-0.027897411957383156,0.009192166849970818,0.0032178976107388735
1772454806520071400,0.395071533203125,-0.030161364004015923,0.014242053031921387,0.014753912575542927
1772454806530089700,0.40508984375,-0.03533295542001724,0.005092230159789324,0.028750687837600708
1772454806540107800,0.415107666015625,-0.03008067049086094,-0.0039047268219292164,0.038300782442092896
1772454806550125600,0.42512548828125,-0.01931990124285221,-0.015051387250423431,0.05626034364104271
1772454806560143600,0.4351435546875,-0.011672368273139,-0.02123551443219185,0.0704328864812851
1772454806570161700,0.44516162109375,-0.00871945545077324,-0.03435105085372925,0.06861341744661331
1772454806580179700,0.4551796875,0.006554039195179939,-0.03153981640934944,0.06224286928772926
1772454806590196700,0.46519677734375,0.01449984684586525,-0.02616768889129162,0.06064444035291672
1772454806600214800,0.47521484375,0.005361475981771946,-0.018375013023614883,0.056832388043403625
1772454806610232600,0.485232666015625,-0.007287740241736174,-0.010319748893380165,0.04488172009587288
1772454806620250600,0.495250732421875,-0.00911386962980032,-0.015460449270904064,0.018744925037026405
1772454806630268700,0.5052685546875,-0.014032728038728237,-0.012753079645335674,-0.006198773626238108
1772454806640286700,0.51528662109375,-0.01811295747756958,-0.016992032527923584,-0.01918780989944935
1772454806650304500,0.525304443359375,-0.02033722959458828,-0.012895824387669563,-0.019032014533877373
1772454806660321800,0.53532177734375,-0.01840297505259514,-0.00563950976356864,-0.009461944922804832
1772454806670339600,0.545339599609375,-0.01564633846282959,-0.0006940197781659663,0.009236641228199005
1772454806680357600,0.555357666015625,-0.01601252146065235,0.0008524778531864285,0.03025803714990616
1772454806690375700,0.565375732421875,-0.016810672357678413,-0.006897587329149246,0.0391513966023922
1772454806700393700,0.575393798828125,-0.021436849609017372,-0.018548917025327682,0.03008865937590599
1772454806710411500,0.58541162109375,-0.015562980435788631,-0.01894226484000683,0.020374514162540436
1772454806720429600,0.5954296875,-0.015140070579946041,-0.023734889924526215,0.014649782329797745
1772454806730446600,0.605446533203125,-0.012922989204525948,-0.036848559975624084,0.01122202817350626
1772454806740464600,0.615464599609375,-0.020110061392188072,-0.031097466126084328,0.007229417096823454
1772454806750482400,0.625482421875,-0.026506176218390465,-0.014563762582838535,0.0006082659820094705
1772454806760500700,0.635500732421875,-0.03309883177280426,0.009380452334880829,-0.00019574233738239855
1772454806770518500,0.6455185546875,-0.0436105951666832,0.011451859027147293,0.0002359560749027878
1772454806780536600,0.65553662109375,-0.05313459038734436,0.00532632227987051,0.00794261135160923
1772454806790554600,0.6655546875,-0.05499906837940216,-0.0021731394808739424,0.02311144396662712
1772454806800571600,0.675571533203125,-0.0564880445599556,-0.017557155340909958,0.04165370389819145
1772454806810589400,0.68558935546875,-0.05902337282896042,-0.04000520706176758,0.055876050144433975
1772454806820607700,0.695607666015625,-0.0597059391438961,-0.03669516369700432,0.05377721041440964
1772454806830625500,0.70562548828125,-0.05662546306848526,-0.02286084182560444,0.042090460658073425
1772454806840643600,0.7156435546875,-0.053283728659152985,-0.012287026271224022,0.01846502721309662
1772454806850661600,0.72566162109375,-0.05209968611598015,-0.004196343012154102,0.0010181264951825142
1772454806860679700,0.7356796875,-0.05567524582147598,-0.0020785972010344267,-0.006678408943116665
1772454806870696400,0.745696533203125,-0.07033488154411316,0.002320145955309272,-0.00920068845152855
1772454806880714800,0.75571484375,-0.07879414409399033,0.03261466696858406,-0.019219500944018364
1772454806890732500,0.765732666015625,-0.08454151451587677,0.06782405823469162,-0.022238193079829216
1772454806900750600,0.77575048828125,-0.09042257070541382,0.08808431774377823,-0.02034441940486431
1772454806910768400,0.785768310546875,-0.09176533669233322,0.0820448026061058,-0.0044200485572218895
1772454806920786700,0.79578662109375,-0.08979540318250656,0.05513675510883331,0.020729247480630875
1772454806930804700,0.8058046875,-0.08311193436384201,0.025672607123851776,0.053032856434583664
1772454806940821800,0.81582177734375,-0.05873628333210945,0.012981312349438667,0.07409526407718658
1772454806950839600,0.825839599609375,-0.04921175539493561,0.01817980222404003,0.06678568571805954
1772454806960857600,0.835857666015625,-0.06564079225063324,0.04814941808581352,0.04397145286202431
1772454806970875400,0.84587548828125,-0.08195026218891144,0.09635689854621887,0.0156513974070549
1772454806980893700,0.855893798828125,-0.06149958074092865,0.14617770910263062,-0.003751328680664301
1772454806990911700,0.865911865234375,-0.029264677315950394,0.15171097218990326,-0.006455768831074238
1772454807000929800,0.8759296875,-0.0023395870812237263,0.14319364726543427,0.007910387590527534
1772454807010946800,0.88594677734375,0.010399377904832363,0.13936801254749298,0.03430710732936859
1772454807020964900,0.89596484375,0.03068334423005581,0.1045418530702591,0.07806684076786041
1772454807030982700,0.905982666015625,0.045758698135614395,0.052570268511772156,0.12445271015167236
1772454807041001000,0.9160009765625,0.0588340200483799,-0.007078415714204311,0.16111911833286285
1772454807051018800,0.926018798828125,0.0644407719373703,-0.029875341802835464,0.17000128328800201
1772454807061036800,0.936036865234375,0.062009308487176895,-0.03133262321352959,0.16286401450634003
1772454807071054600,0.9460546875,0.05901405215263367,-0.016867663711309433,0.13749288022518158
1772454807081071900,0.95607177734375,0.06477100402116776,0.0027952538803219795,0.10491310060024261
1772454807091089700,0.966089599609375,0.06479950249195099,0.020007796585559845,0.0745013952255249
1772454807101107700,0.976107666015625,0.06669168174266815,0.007021158002316952,0.04842852056026459
1772454807111125800,0.986125732421875,0.07271468639373779,-0.010992996394634247,0.03525359556078911
1772454807121143800,0.996143798828125,0.07400258630514145,-0.01381088700145483,0.03433666750788689
1772454807131161600,1.00616162109375,0.06742911040782928,-0.0021752698812633753,0.043349336832761765
1772454807141179000,1.016178955078125,0.056589774787425995,0.009470467455685139,0.05317879840731621
1772454807151196700,1.02619677734375,0.04526734724640846,0.00957033596932888,0.06223407760262489
1772454807161214700,1.036214599609375,0.0452127531170845,-0.0026106967125087976,0.06729088723659515
1772454807171232800,1.046232666015625,0.04746924713253975,-0.02677222527563572,0.06807465851306915
1772454807181250800,1.056250732421875,0.049433328211307526,-0.07094661146402359,0.0792708545923233
1772454807191268600,1.0662685546875,0.04518585279583931,-0.10733257979154587,0.0844336599111557
1772454807201287000,1.076286865234375,0.04689667001366615,-0.12617018818855286,0.08573994040489197
1772454807211303700,1.0863037109375,0.049307361245155334,-0.1215493306517601,0.07926659286022186
1772454807221321700,1.09632177734375,0.044986382126808167,-0.1006493791937828,0.06816919893026352
1772454807231339800,1.10633984375,0.03513721376657486,-0.08058725297451019,0.05361981689929962
1772454807241357800,1.11635791015625,0.024936508387327194,-0.06860755383968353,0.038730084896087646
1772454807251375600,1.126375732421875,0.016932910308241844,-0.06799396127462387,0.012398346327245235
1772454807261393700,1.1363935546875,0.012576512061059475,-0.06686105579137802,-0.011058776639401913
1772454807271411700,1.14641162109375,0.01561145018786192,-0.05161978304386139,-0.043655868619680405
1772454807281428700,1.1564287109375,0.010173807851970196,-0.04014076292514801,-0.07065393030643463
1772454807291446800,1.16644677734375,0.011511247605085373,-0.03002128191292286,-0.09128144383430481
1772454807301464800,1.17646484375,0.016388028860092163,-0.023864319548010826,-0.09172326326370239
1772454807311482600,1.186482666015625,0.02184884063899517,-0.020846160128712654,-0.07497890293598175
1772454807321500700,1.196500732421875,0.025370869785547256,-0.019696738570928574,-0.0453198105096817
1772454807331518700,1.206518798828125,0.030966971069574356,-0.028917135670781136,-0.013510482385754585
1772454807341536800,1.216536865234375,0.032996565103530884,-0.038058437407016754,0.009400425478816032
1772454807351553800,1.2265537109375,0.03688717633485794,-0.043526969850063324,0.015354189090430737
1772454807361571800,1.23657177734375,0.04338342696428299,-0.043768253177404404,0.0033337450586259365
1772454807371589600,1.246589599609375,0.053288254886865616,-0.040464602410793304,-0.017373930662870407
1772454807381607700,1.256607666015625,0.0515766404569149,-0.03871197625994682,-0.02526460960507393
1772454807391625700,1.266625732421875,0.047022636979818344,-0.030246052891016006,-0.019042400643229485
1772454807401643800,1.276643798828125,0.04216476529836655,-0.014402907341718674,-0.00953757856041193
1772454807411661800,1.286661865234375,0.040835581719875336,-0.009669938124716282,-0.003270095447078347
1772454807421678800,1.296678955078125,0.03786642104387283,-0.01254189107567072,-0.000803209375590086
1772454807431696600,1.306696533203125,0.03428793326020241,-0.008164186961948872,-0.009456885047256947
1772454807441714700,1.316714599609375,0.030060697346925735,-0.00046818371629342437,-0.02106720209121704
1772454807451732700,1.326732666015625,0.02893524430692196,0.008200405165553093,-0.02516287751495838
1772454807461750800,1.336750732421875,0.023074958473443985,0.01119033619761467,-0.017768077552318573
1772454807471768800,1.346768798828125,0.022348182275891304,0.009791644290089607,-0.003996073268353939
1772454807481785900,1.356785888671875,0.014728878624737263,0.008100536651909351,0.0019313243683427572
1772454807491803600,1.3668037109375,0.012943761423230171,0.009405752643942833,-0.0005869606975466013
1772454807501821700,1.37682177734375,0.014214888215065002,0.011930429376661777,-0.011574630625545979
1772454807511839700,1.38683984375,0.011917912401258945,0.010582869872450829,-0.021642444655299187
1772454807521857800,1.39685791015625,0.008146876469254494,0.003918575122952461,-0.021701833233237267
1772454807531875800,1.406875732421875,0.008137554861605167,0.0018540926976129413,-0.021013671532273293
1772454807541893600,1.4168935546875,0.0075908079743385315,0.009281915612518787,-0.020424848422408104
1772454807551910700,1.42691064453125,0.003275954397395253,0.015326225198805332,-0.011700065806508064
1772454807561928700,1.4369287109375,-0.009006277658045292,0.01184946857392788,-0.008326639421284199
1772454807571946800,1.44694677734375,-0.011740812100470066,0.015115302987396717,-0.0008000136003829539
1772454807581964800,1.45696484375,-0.00498224189504981,0.013432451523840427,0.00333134806714952
1772454807591982800,1.46698291015625,-0.005148689262568951,0.00806325301527977,0.0019534286111593246
1772454807602000600,1.477000732421875,0.000483363721286878,0.006923686247318983,-0.00048070057528093457
1772454807612019000,1.48701904296875,0.005516205448657274,0.008273642510175705,-0.009853961877524853
1772454807622035700,1.49703564453125,0.011577027849853039,0.0034378746058791876,-0.016325710341334343
1772454807632053800,1.5070537109375,0.013799968175590038,0.0017659420846030116,-0.023200394585728645
1772454807642071800,1.51707177734375,0.011484615504741669,0.005652026738971472,-0.022313294932246208
1772454807652089900,1.52708984375,0.011999937705695629,0.0014791196445003152,-0.02117133140563965
1772454807662107600,1.537107666015625,0.015046860091388226,0.009546633809804916,-0.016684969887137413
1772454807672125700,1.547125732421875,0.010663030669093132,0.01569906808435917,0.00013768543431069702
1772454807682142700,1.557142822265625,0.008449677377939224,0.018075939267873764,0.017044231295585632
1772454807692160800,1.567160888671875,0.005229915492236614,0.01270141452550888,0.024208933115005493
1772454807702178800,1.5771787109375,0.005107143893837929,0.010221744887530804,0.015728630125522614
1772454807712196900,1.58719677734375,0.008683502674102783,0.011677960865199566,0.009429454803466797
1772454807722214700,1.597214599609375,0.0057380469515919685,0.018428009003400803,0.016029566526412964
1772454807732232700,1.607232666015625,0.00484162662178278,0.014636467210948467,0.03146658092737198
1772454807742250800,1.617250732421875,0.0059926449321210384,0.0109253516420722,0.04578852653503418
1772454807752267800,1.627267822265625,0.005628058221191168,-0.003713511861860752,0.054789479821920395
1772454807762285800,1.637285888671875,0.0028461201582103968,-0.013450827449560165,0.0603104792535305
1772454807772304000,1.647303955078125,0.003914047963917255,-0.020776918157935143,0.057206831872463226
1772454807782321700,1.65732177734375,0.008020642213523388,-0.018876751884818077,0.043831635266542435
1772454807792339700,1.667339599609375,0.004721518140286207,-0.011121094226837158,0.03074752539396286
1772454807802357800,1.677357666015625,0.0008266451768577099,-0.00418382603675127,0.020494356751441956
1772454807812375800,1.687375732421875,-0.003026682650670409,0.007715444080531597,0.008480037562549114
1772454807822392600,1.697392578125,0.0015571502735838294,0.016025304794311523,0.005378253757953644
1772454807832411000,1.707410888671875,0.0033939324785023928,0.018009360879659653,0.008790295571088791
1772454807842428700,1.7174287109375,-0.001454884884878993,0.010853978805243969,0.013991981744766235
1772454807852446700,1.72744677734375,0.00035233621019870043,0.00032890037982724607,0.01762719638645649
1772454807862464800,1.73746484375,0.009401757270097733,-0.006452572997659445,0.021885057911276817
1772454807872482800,1.74748291015625,0.010249707847833633,-0.004404069390147924,0.031690020114183426
1772454807882499600,1.75749951171875,0.007455785758793354,-0.004029895178973675,0.04183133691549301
1772454807892518000,1.767517822265625,0.0031848743092268705,0.005509813781827688,0.04754647985100746
1772454807902535700,1.77753564453125,0.011182347312569618,0.014974155463278294,0.043542683124542236
1772454807912553700,1.7875537109375,0.011815113946795464,0.016890300437808037,0.03693271800875664
1772454807922571800,1.79757177734375,0.010674748569726944,0.01769484020769596,0.028874525800347328
1772454807932589800,1.80758984375,0.009378587827086449,0.013713947497308254,0.022837406024336815
1772454807942607600,1.817607666015625,0.009444368071854115,0.0038514635525643826,0.012314190156757832
1772454807952625000,1.827625,0.009444101713597775,-0.007711715530604124,0.00908564031124115
1772454807962642700,1.837642578125,0.004683967679738998,-0.011247328482568264,0.014782141894102097
1772454807972660700,1.84766064453125,0.006217149551957846,-0.001460477476939559,0.03365489840507507
1772454807982678500,1.857678466796875,0.00250496924854815,0.012223376892507076,0.05281767621636391
1772454807992696600,1.867696533203125,-0.0033430662006139755,0.018979549407958984,0.07916539162397385
1772454808002714600,1.877714599609375,-0.006100236903876066,0.026433205232024193,0.08822386711835861
1772454808012732400,1.887732421875,-0.0025473134592175484,0.020669858902692795,0.08552688360214233
1772454808022749400,1.89774951171875,-0.004040548112243414,0.018264224752783775,0.06911755353212357
1772454808032767500,1.907767578125,-0.003944674041122198,0.019343337044119835,0.04651503637433052
1772454808042785500,1.91778564453125,-0.0070491209626197815,0.019565977156162262,0.03235660865902901
1772454808052803600,1.927803466796875,-0.004032824654132128,0.013816213235259056,0.0234624482691288
1772454808062821600,1.937821533203125,-0.0025161546654999256,0.004824582487344742,0.016467124223709106
1772454808072839400,1.94783935546875,-0.0019619506783783436,-0.00037204360705800354,0.003820038167759776
1772454808082856700,1.957856689453125,-0.00044794369023293257,0.008826248347759247,-0.005625927820801735
1772454808092874500,1.96787451171875,-0.0011353056179359555,0.021095963194966316,-0.006140716839581728
1772454808102892500,1.977892578125,0.0016202671686187387,0.02665344811975956,0.008882973343133926
1772454808112910600,1.98791064453125,-0.002305498579517007,0.034995801746845245,0.023065637797117233
1772454808122928600,1.9979287109375,-0.0005390237784013152,0.028548287227749825,0.04005660489201546
1772454808132946400,2.007946533203125,0.001924932817928493,0.012010323815047741,0.047748614102602005
1772454808142964500,2.017964599609375,0.0035236284602433443,-0.003329484025016427,0.05079633370041847
1772454808152981500,2.0279814453125,0.0024626250378787518,-0.007920507341623306,0.05576472729444504
1772454808162999600,2.03799951171875,0.005249623209238052,-0.014395717531442642,0.0581410676240921
1772454808173017600,2.048017578125,0.002383529208600521,-0.0218949131667614,0.06148679554462433
1772454808183035600,2.05803564453125,0.007692540530115366,-0.014458567835390568,0.06591296941041946
1772454808193053400,2.068053466796875,0.007650196552276611,-0.006797452457249165,0.06841367483139038
1772454808203071500,2.078071533203125,0.011090467683970928,-0.002858903491869569,0.0703980028629303
1772454808213088500,2.088088623046875,0.011048922315239906,0.004397145472466946,0.06956017017364502
1772454808223106600,2.0981064453125,0.008685633540153503,0.008901349268853664,0.06535930186510086
1772454808233124600,2.10812451171875,0.0037358824629336596,0.01805250346660614,0.05559002608060837
1772454808243142700,2.118142578125,0.0020841897930949926,0.02762310579419136,0.04766898602247238
1772454808253160400,2.128160400390625,0.0027230822015553713,0.026821494102478027,0.05049353465437889
1772454808263178500,2.138178466796875,0.0027590349782258272,0.013921141624450684,0.05348506197333336
1772454808273196500,2.148196533203125,0.0036131106317043304,0.004093278665095568,0.05307307094335556
1772454808283213600,2.158213623046875,0.010009224526584148,-0.010441455990076065,0.05390850454568863
1772454808293231400,2.1682314453125,0.007650995627045631,-0.026789270341396332,0.059430304914712906
1772454808303249700,2.178249755859375,0.004877313040196896,-0.037465084344148636,0.07026910036802292
1772454808313267500,2.188267333984375,0.0027662254869937897,-0.03809678554534912,0.07257593423128128
1772454808323285500,2.198285400390625,-0.001799764228053391,-0.03125033155083656,0.06635452061891556
1772454808333303600,2.208303466796875,-0.00035499935620464385,-0.011777829378843307,0.05759511888027191
1772454808343320600,2.218320556640625,0.002314020646736026,-0.011868643574416637,0.05645262449979782
1772454808353338400,2.22833837890625,0.004369182046502829,-0.01702239364385605,0.05426936224102974
1772454808363356700,2.238356689453125,0.006870422977954149,-0.016949422657489777,0.06124125421047211
1772454808373374500,2.24837451171875,0.01549134124070406,-0.022591061890125275,0.06890716403722763
1772454808383392500,2.258392578125,0.014876684173941612,-0.02828596718609333,0.07140467315912247
1772454808393410600,2.26841064453125,0.012055863626301289,-0.027229223400354385,0.07081132382154465
1772454808403428600,2.2784287109375,0.008759669028222561,-0.025196166709065437,0.06281118839979172
1772454808413445400,2.2884453125,0.0037350833881646395,-0.031066305935382843,0.05339371785521507
1772454808423463700,2.298463623046875,0.003942277282476425,-0.03303544595837593,0.039494145661592484
1772454808433481500,2.3084814453125,0.0026578346733003855,-0.02467338927090168,0.02791338972747326
1772454808443499500,2.31849951171875,-0.0029981867410242558,-0.015205318108201027,0.007724498864263296
1772454808453517300,2.328517333984375,-0.000031691615731688216,-0.004638161510229111,-0.0028216191567480564
1772454808463535600,2.33853564453125,-0.0014924354618415236,0.0013225257862359285,-0.0065292720682919025
1772454808473553400,2.348553466796875,-0.0008266451768577099,0.0003478088474366814,-0.0020029633305966854
1772454808483570700,2.35857080078125,-0.004554804414510727,0.000018109494703821838,0.003376355627551675
1772454808493588500,2.36858837890625,0.0012833772925660014,-0.0006711165769957006,0.009163937531411648
1772454808503606500,2.3786064453125,-0.0008096009842120111,-0.0034266894217580557,0.021890385076403618
1772454808513624300,2.388624267578125,-0.005554821342229843,-0.0096246637403965,0.0385013185441494
1772454808523642600,2.398642578125,-0.0037238982040435076,-0.012601546011865139,0.0518735833466053
1772454808533660700,2.40866064453125,-0.0004191815387457609,-0.006045109126716852,0.06363623589277267
1772454808543677700,2.418677734375,0.0018881811993196607,-0.002805640222504735,0.08281712234020233
1772454808553695500,2.428695556640625,-0.005082376766949892,-0.00039601203752681613,0.0899815559387207
1772454808563713500,2.438713623046875,-0.005301554687321186,0.006804642733186483,0.08878686279058456
1772454808573731300,2.4487314453125,-0.0031135017052292824,0.006430468522012234,0.07518476247787476
1772454808583749600,2.45874951171875,-0.011916314251720905,0.006107959896326065,0.05763533338904381
1772454808593767700,2.468767578125,-0.012357067316770554,-0.007439540233463049,0.034273549914360046
1772454808603785500,2.478785400390625,-0.012740562669932842,-0.0776471272110939,0.026941070333123207
1772454808613802500,2.488802490234375,-0.012017780914902687,-0.06433425098657608,0.016892164945602417
1772454808623820500,2.498820556640625,-0.011778628453612328,-0.02714666537940502,0.006570284720510244
1772454808633838600,2.508838623046875,-0.013470268808305264,-0.009095760062336922,-0.011867311783134937
1772454808643856600,2.518856689453125,-0.010969826951622963,0.015102519653737545,-0.01932336390018463
1772454808653874700,2.528874755859375,-0.011709386482834816,0.025963157415390015,-0.019455457106232643
1772454808663892500,2.538892578125,-0.013084109872579575,0.015665512531995773,-0.01041322574019432
1772454808673909500,2.548909423828125,-0.007129548583179712,0.004595817066729069,-0.005613144487142563
1772454808683927600,2.558927490234375,-0.00896553136408329,-0.005182511638849974,-0.003168629016727209
1772454808693945600,2.568945556640625,-0.00313560594804585,-0.014934474602341652,-0.004479437135159969
1772454808703963400,2.57896337890625,-0.004509530495852232,-0.012665461748838425,-0.00555295730009675
1772454808713981700,2.588981689453125,-0.006155630573630333,-0.00893969926983118,-0.007468036375939846
1772454808723999500,2.59899951171875,-0.00782436691224575,-0.009622800163924694,-0.011208445765078068
1772454808734017500,2.609017578125,-0.00683100800961256,-0.015457252971827984,-0.019507920369505882
1772454808744034600,2.61903466796875,-0.010324276052415371,-0.013778396882116795,-0.0319608636200428
1772454808754052600,2.629052490234375,-0.008311991579830647,-0.001895105466246605,-0.042789276689291
1772454808764070400,2.6390703125,-0.010938934050500393,0.019665580242872238,-0.04640398547053337
1772454808774088700,2.649088623046875,-0.019175292924046516,0.029617812484502792,-0.037208620458841324
1772454808784106500,2.6591064453125,-0.01938701421022415,0.032998163253068924,-0.023334350436925888
1772454808794124500,2.66912451171875,-0.020206468179821968,0.02702176384627819,-0.014615427702665329
1772454808804141600,2.6791416015625,-0.020742030814290047,0.016208264976739883,-0.006657636258751154
1772454808814159600,2.68915966796875,-0.019657857716083527,0.007674165070056915,-0.010076869279146194
1772454808824177400,2.699177490234375,-0.018934542313218117,0.006774548906832933,-0.021707693114876747
1772454808834195700,2.70919580078125,-0.014217285439372063,0.006100769154727459,-0.037215810269117355
1772454808844213500,2.719213623046875,-0.0064925202168524265,0.005447496194392443,-0.043408725410699844
1772454808854231600,2.7292314453125,-0.00009720538218971342,0.0028839372098445892,-0.033188845962285995
1772454808864249300,2.739249267578125,0.002112685702741146,0.0059934440068900585,-0.0188961923122406
1772454808874266600,2.7492666015625,-0.006416087504476309,0.008431301452219486,-0.007320763543248177
1772454808884284400,2.759284423828125,-0.008947954513132572,0.014766429550945759,-0.00003302319601061754
1772454808894302700,2.769302734375,-0.007465373259037733,0.023556724190711975,0.005307679995894432
1772454808904320500,2.779320556640625,-0.008743423968553543,0.02520841732621193,0.0038155107758939266
1772454808914338600,2.789338623046875,-0.01059005968272686,0.02365366369485855,0.006431800313293934
1772454808924356400,2.7993564453125,-0.008869924582540989,0.010992730036377907,0.006423278246074915
1772454808934373600,2.80937353515625,-0.0014367754338309169,-0.0016588830621913075,0.005624862387776375
1772454808944391400,2.819391357421875,0.0019624833948910236,-0.009435313753783703,0.0011984225129708648
1772454808954409500,2.829409423828125,-0.002120941411703825,-0.006530071143060923,-0.00039308256236836314
1772454808964427500,2.839427490234375,-0.0020759340841323137,-0.002674612682312727,-0.007029946427792311
1772454808974445600,2.849445556640625,0.00040080572944134474,0.007711981888860464,-0.018216287717223167
1772454808984463400,2.85946337890625,0.0014210627414286137,0.016079368069767952,-0.016161659732460976
1772454808994482000,2.86948193359375,0.005247758701443672,0.023429958149790764,-0.011402856558561325
1772454809004499000,2.8794990234375,0.0011595403775572777,0.02527819201350212,-0.00944916158914566
1772454809014517000,2.88951708984375,0.0031555795576423407,0.03374118730425835,-0.0030626351945102215
1772454809024535000,2.89953515625,0.007133277133107185,0.029893450438976288,-0.004761199466884136
1772454809034553000,2.909552978515625,0.006045109126716852,0.01577470265328884,-0.006608900614082813
1772454809044571000,2.91957080078125,0.0052442969754338264,0.005038434639573097,-0.01287691667675972
1772454809054589000,2.9295888671875,0.008104798384010792,-0.005407548509538174,-0.021930333226919174
1772454809064606000,2.93960595703125,0.01113574206829071,-0.008334096521139145,-0.026972228661179543
1772454809074624000,2.9496240234375,0.009424660354852676,0.001957689644768834,-0.01968049444258213
1772454809084642000,2.95964208984375,0.001788046327419579,0.0023694143164902925,-0.013035108335316181
1772454809094660000,2.96966015625,0.0006982808117754757,0.013434049673378468,-0.007907724007964134
1772454809104678100,2.97967822265625,0.006670153234153986,0.023027287796139717,-0.004430967383086681
1772454809114696000,2.989696044921875,0.0020157466642558575,0.021948175504803658,-0.0009076052810996771
1772454809124714200,2.99971435546875,0.00009880327706923708,0.01894679293036461,-0.0025688852183520794
1772454809134731000,3.00973095703125,0.0054304515942931175,0.01780456304550171,-0.006048571318387985
1772454809144748800,3.019748779296875,0.011174091137945652,0.015923039987683296,-0.006596916355192661
1772454809154767000,3.02976708984375,0.00384453940205276,0.008465656079351902,-0.006760966964066029
1772454809164785200,3.03978515625,0.008729841560125351,0.009030778892338276,-0.008364723064005375
1772454809174803000,3.049802978515625,0.008975652046501637,0.009860353544354439,-0.0068235513754189014
1772454809184821200,3.0598212890625,0.012077435851097107,0.009920807555317879,-0.003507383167743683
1772454809194838000,3.069838134765625,0.00857244897633791,0.012926717288792133,-0.004747350700199604
1772454809204855800,3.079855712890625,0.011445733718574047,0.016945960000157356,-0.005854693241417408
1772454809214874000,3.0898740234375,0.010892062447965145,0.021584654226899147,-0.009093097411096096
1772454809224892200,3.09989208984375,0.008595618419349194,0.026571156457066536,-0.011626029387116432
1772454809234910000,3.109909912109375,0.010804178193211555,0.025165008381009102,-0.019335614517331123
1772454809244928000,3.119927978515625,0.013438044115900993,0.026688335463404655,-0.029319539666175842
1772454809254946000,3.129946044921875,0.018737202510237694,0.025194834917783737,-0.027211647480726242
1772454809264963000,3.139963134765625,0.015477227047085762,0.024505876004695892,-0.020195815712213516
1772454809274981000,3.149981201171875,0.015968846157193184,0.040222521871328354,-0.026455841958522797
1772454809284999200,3.159999267578125,0.02197454124689102,0.02099662832915783,-0.03452815115451813
1772454809295017000,3.170016845703125,0.019842414185404778,0.005628857295960188,-0.0487358458340168
1772454809305035000,3.180034912109375,0.01655607298016548,0.00011984224693151191,-0.06963260471820831
1772454809315053000,3.190052978515625,0.024458738043904305,0.0016165387351065874,-0.08805795013904572
1772454809325070000,3.200070068359375,0.025563949719071388,0.02605796605348587,-0.10126163810491562
1772454809335088000,3.210088134765625,0.014387461356818676,0.037872280925512314,-0.1048172265291214
1772454809345106200,3.220106201171875,0.010092581622302532,0.04647376015782356,-0.10315195471048355
1772454809355124000,3.2301240234375,0.00631994754076004,0.05770883709192276,-0.09210196137428284
1772454809365142000,3.24014208984375,0.004520183429121971,0.066703662276268,-0.0799265205860138
1772454809375160000,3.25016015625,0.00743181724101305,0.05500013381242752,-0.06372678279876709
1772454809385178000,3.26017822265625,0.012799152173101902,0.0416443832218647,-0.045227400958538055
1772454809395195000,3.27019482421875,0.018746789544820786,0.026103772222995758,-0.028271319344639778
1772454809405213200,3.280213134765625,0.01429291907697916,0.021395303308963776,-0.01224787812680006
1772454809415231000,3.29023095703125,0.015170164406299591,0.01477814745157957,-0.0018330537714064121
1772454809425249000,3.3002490234375,0.015663914382457733,0.011501393280923367,0.008725314401090145
1772454809435267000,3.31026708984375,0.010323744267225266,0.013533385470509529,0.005560946650803089
1772454809445285000,3.32028515625,0.013798636384308338,0.021033113822340965,-0.0029433255549520254
1772454809455302000,3.330302001953125,0.01507242675870657,0.02678181231021881,-0.013941382057964802
1772454809465320200,3.3403203125,0.01956145092844963,0.03146844357252121,-0.02587633766233921
1772454809475338000,3.350337890625,0.023322099819779396,0.036862943321466446,-0.03154487535357475
1772454809485356000,3.36035595703125,0.022965237498283386,0.031942218542099,-0.03563469275832176
1772454809495374000,3.3703740234375,0.023305056616663933,0.019338011741638184,-0.03707519546151161
1772454809505392000,3.38039208984375,0.027532026171684265,0.015784556046128273,-0.032221321016550064
1772454809515410000,3.390409912109375,0.027605261653661728,0.011756524443626404,-0.024522120133042336
1772454809525427200,3.40042724609375,0.02533731423318386,0.014417022466659546,-0.015489744022488594
1772454809535445000,3.410445068359375,0.020743360742926598,0.01360289379954338,-0.0023374564480036497
1772454809545463000,3.420463134765625,0.014859640039503574,0.029438583180308342,0.003724164329469204
1772454809555480800,3.430480712890625,0.020173178985714912,0.042080074548721313,0.012296346947550774
1772454809565499100,3.4404990234375,0.02261955849826336,0.052932724356651306,0.013980796560645103
1772454809575517000,3.450516845703125,0.02588166482746601,0.0377335287630558,0.008741294033825397
1772454809585534200,3.4605341796875,0.02683667466044426,0.03440271317958832,0.0005416869535110891
1772454809595552000,3.470552001953125,0.02863856963813305,0.03687146678566933,-0.009892311878502369
1772454809605570000,3.480570068359375,0.03387780487537384,0.03556651622056961,-0.024819595739245415
1772454809615587800,3.490587890625,0.032408539205789566,0.02960396558046341,-0.04277462884783745
1772454809625606100,3.500606201171875,0.029875075444579124,0.017948107793927193,-0.05636899918317795
1772454809635624000,3.5106240234375,0.026625752449035645,0.006588660646229982,-0.07256793975830078
1772454809645641200,3.52064111328125,0.028982115909457207,-0.0024836640805006027,-0.08421874046325684
1772454809655659000,3.530658935546875,0.029763754457235336,-0.004276504274457693,-0.08457373827695847
1772454809665677000,3.540677001953125,0.024385500699281693,-0.002773149637505412,-0.07552991062402725
1772454809675694800,3.55069482421875,0.020974790677428246,0.007407316006720066,-0.060498498380184174
1772454809685713200,3.560713134765625,0.015981096774339676,0.017127055674791336,-0.04826420173048973
1772454809695731000,3.57073095703125,0.015108378604054451,0.033075395971536636,-0.044792503118515015
1772454809705749000,3.5807490234375,0.01780669391155243,0.037106357514858246,-0.04604285955429077
1772454809715766000,3.59076611328125,0.014702512882649899,0.03461629897356033,-0.045818354934453964
1772454809725784000,3.6007841796875,0.011431085877120495,0.02009115368127823,-0.04306917265057564
1772454809735801900,3.6108017578125,0.010995392687618732,0.0012580773327499628,-0.03848986700177193
1772454809745820200,3.620820068359375,0.01272857841104269,-0.0049617355689406395,-0.033835992217063904
1772454809755838000,3.630837890625,0.0026043052785098553,0.010018279775977135,-0.02665877528488636
1772454809765856000,3.64085595703125,-0.002784334821626544,0.01720748282968998,-0.012716594152152538
1772454809775873000,3.650873046875,-0.005176652688533068,0.023679496720433235,0.0027324033435434103
1772454809785891000,3.66089111328125,-0.006471215281635523,0.02454955130815506,0.00797057431191206
1772454809795908900,3.670908935546875,-0.002058623591437936,0.026521090418100357,0.009854228235781193
1772454809805927000,3.680927001953125,-0.004670385736972094,0.03092808835208416,0.005110872443765402
1772454809815945200,3.6909453125,-0.007867776788771152,0.024214526638388634,-0.011246263049542904
1772454809825963000,3.700962890625,-0.009497364982962608,0.006701578386127949,-0.03280321881175041
1772454809835981000,3.71098095703125,-0.0057383133098483086,0.0011499529937282205,-0.04560290649533272
1772454809845998000,3.720998046875,-0.001582982949912548,-0.006117813754826784,-0.04688335210084915
1772454809856016000,3.731015869140625,-0.0017904432024806738,-0.010821222327649593,-0.03840517997741699
1772454809866034000,3.741033935546875,-0.002537992550060153,-0.01492355577647686,-0.02959704026579857
1772454809876052200,3.75105224609375,-0.0018250643042847514,-0.005051750224083662,-0.020022444427013397
1772454809886070000,3.761070068359375,-0.004581702407449484,0.0002300971100339666,-0.00035952674807049334
1772454809896088000,3.771088134765625,-0.008448345586657524,0.0027510453946888447,0.01924746483564377
1772454809906105000,3.78110498046875,-0.011079815216362476,0.0008253136184066534,0.03815963491797447
1772454809916123100,3.791123046875,-0.008990298956632614,0.0016682040877640247,0.046904925256967545
1772454809926141000,3.801140869140625,-0.006867227144539356,0.0036943370942026377,0.03626213222742081
1772454809936159200,3.8111591796875,-0.006188653875142336,0.004585164599120617,0.016619723290205002
1772454809946177000,3.821177001953125,-0.010059026069939137,0.00481233187019825,-0.0076091839000582695
1772454809956195000,3.831195068359375,-0.010189786553382874,0.00010892329009948298,-0.028653481975197792
1772454809966212900,3.841212890625,-0.011576495133340359,-0.000761664065066725,-0.030527282506227493
1772454809976230100,3.851230224609375,-0.017286311835050583,-0.0014223942998796701,-0.03015044517815113
1772454809986248000,3.861248046875,-0.02040993422269821,-0.0014365090755745769,-0.020500214770436287
1772454809996266000,3.871265869140625,-0.018927885219454765,-0.0012207929976284504,-0.005352154839783907
1772454810006284000,3.881283935546875,-0.018277540802955627,-0.002828809665516019,0.009136506356298923
1772454810016302000,3.891302001953125,-0.014064686372876167,-0.007957525551319122,0.027966387569904327
1772454810026320000,3.90131982421875,-0.011324027553200722,-0.013637781143188477,0.04448011517524719
1772454810036337000,3.9113369140625,-0.011648932471871376,-0.01629961095750332,0.044325120747089386
1772454810046355000,3.92135498046875,-0.006776413414627314,-0.011386877857148647,0.037389982491731644
1772454810056373000,3.931373046875,-0.006491188891232014,-0.011475827544927597,0.02352210320532322
1772454810066391000,3.94139111328125,-0.005537777207791805,-0.011039068922400475,0.006162820849567652
1772454810076409000,3.9514091796875,-0.004922853317111731,-0.008229433558881283,-0.0031619712244719267
1772454810086427000,3.961427001953125,-0.008680573664605618,-0.004824582487344742,-0.0011611381778493524
1772454810096444000,3.97144384765625,-0.012923788279294968,-0.0067838700488209724,0.006214752793312073
1772454810106462000,3.9814619140625,-0.01678563840687275,-0.006404635962098837,0.013942980207502842
1772454810116480000,3.99147998046875,-0.017527595162391663,-0.009907491505146027,0.016026103869080544
1772454810126498000,4.001498046875,-0.012523515149950981,-0.011512046679854393,0.00714792450889945
1772454810136516000,4.01151611328125,-0.012987704016268253,-0.01630946435034275,-0.0001960086519829929
1772454810146534000,4.021533935546875,-0.012989568524062634,-0.014692393131554127,-0.0024671524297446012
1772454810156552200,4.03155224609375,-0.013015134260058403,-0.007612912449985743,-0.0049007488414645195
1772454810166569000,4.04156884765625,-0.009443302638828754,0.00213638786226511,-0.0032975259236991405
1772454810176587000,4.0515869140625,-0.006421680096536875,0.0028394623659551144,0.003043460426852107
1772454810186605000,4.06160498046875,-0.0054634748958051205,-0.0012399677652865648,0.006836334243416786
1772454810196623000,4.071623046875,-0.007507184520363808,-0.004650145769119263,0.008834504522383213
1772454810206641000,4.081640869140625,-0.003168895374983549,0.00242081331089139,0.014122743159532547
1772454810216659000,4.091658935546875,-0.001038366463035345,0.0004516721237450838,0.023003052920103073
1772454810226676000,4.101676025390625,-0.008362059481441975,0.0034328147303313017,0.027355991303920746
1772454810236694000,4.111694091796875,-0.008762598969042301,0.0036607813090085983,0.022711703553795815
1772454810246712000,4.121712158203125,-0.0021044297609478235,0.00011158645065734163,0.016955014318227768
1772454810256730000,4.131730224609375,0.0032557144295424223,-0.007788414601236582,0.009910421445965767
1772454810266748000,4.141747802734375,0.0011494202772155404,-0.013206083327531815,0.009225189685821533
1772454810276766000,4.151765869140625,0.001862082164734602,-0.011242267675697803,0.007978031411767006
1772454810286784000,4.161783935546875,-0.004817924462258816,-0.009332515299320221,0.0012218583142384887
1772454810296801000,4.171801025390625,-0.005816077347844839,-0.011800999753177166,-0.011048655956983566
1772454810306819000,4.181819091796875,-0.00564030883833766,-0.013115002773702145,-0.018014686182141304
1772454810316837000,4.191837158203125,-0.00860334187746048,-0.007514375261962414,-0.01781228557229042
1772454810326855000,4.20185498046875,-0.012767726555466652,0.0020477045327425003,-0.00603365758433938
1772454810336873000,4.211873046875,-0.016323046758770943,0.009394034743309021,0.007681621704250574
1772454810346891000,4.22189111328125,-0.015158180147409439,0.01635793410241604,0.01763252355158329
1772454810356908000,4.231907958984375,-0.00999457761645317,0.012724317610263824,0.022712768986821175
1772454810366926000,4.241926025390625,-0.006471747532486916,-0.0024375913199037313,0.02527286671102047
1772454810376944000,4.251944091796875,-0.009890181012451649,-0.017038637772202492,0.026990605518221855
1772454810386962000,4.2619619140625,-0.010671552270650864,-0.02058676816523075,0.02424595132470131
1772454810396980000,4.27197998046875,-0.009196427650749683,-0.005796103738248348,0.023779630661010742
1772454810406998000,4.281998046875,-0.013908358290791512,0.0070856064558029175,0.021918348968029022
1772454810417016000,4.29201611328125,-0.00989444274455309,0.014002900570631027,0.022280272096395493
1772454810427032800,4.30203271484375,-0.004226969089359045,0.019150258973240852,0.02038969285786152
1772454810437051100,4.312051025390625,0.004799815360456705,0.029527531936764717,0.02002563886344433
1772454810447069000,4.32206884765625,-0.00011345066013745964,0.029514215886592865,0.021390775218605995
1772454810457087000,4.3320869140625,0.0036756948102265596,0.017121994867920876,0.030581079423427582
1772454810467105000,4.34210498046875,0.00926274061203003,-0.016884440556168556,0.03441176936030388
1772454810477123000,4.352123046875,0.008497348055243492,-0.0465850792825222,0.028843365609645844
1772454810487139800,4.362139892578125,-0.00039867521263659,-0.08758444339036942,0.023420903831720352
1772454810497158100,4.372158203125,-0.007998005487024784,-0.0521545484662056,-0.009364207275211811
1772454810507176000,4.382176025390625,-0.0032810145057737827,0.0009978864109143615,-0.04346092417836189
1772454810517194000,4.392194091796875,-0.004729507956653833,0.023786289617419243,-0.05880765616893768
1772454810527212000,4.4022119140625,-0.009703493677079678,0.02317722514271736,-0.05769658461213112
1772454810537230000,4.41222998046875,-0.010016681626439095,0.017408018931746483,-0.04628893360495567
1772454810547246800,4.422246826171875,0.00038935415796004236,0.015397065319120884,-0.036908216774463654
1772454810557265200,4.43226513671875,0.0017638115677982569,0.013310745358467102,-0.013255617581307888
1772454810567283000,4.442282958984375,0.005881591234356165,0.014710236340761185,0.00884968414902687
1772454810577301000,4.452301025390625,0.0020687435753643513,0.012242551892995834,0.028354676440358162
1772454810587318800,4.46231884765625,-0.007060306146740913,0.006711165886372328,0.030247118324041367
1772454810597337000,4.472337158203125,0.001988049829378724,-0.00034221619716845453,0.01908154971897602
1772454810607353900,4.482353759765625,0.00558198569342494,0.01943787932395935,-0.003938282374292612
1772454810617372200,4.4923720703125,-0.005566539242863655,0.03182051330804825,-0.020912205800414085
1772454810627390000,4.502389892578125,-0.008074171841144562,0.033782996237277985,-0.023906664922833443
1772454810637408000,4.512407958984375,-0.013592241331934929,0.029323533177375793,-0.008617190644145012
1772454810647425800,4.52242578125,-0.019751600921154022,0.024163393303751945,0.008101069368422031
1772454810657444000,4.532444091796875,-0.020071713253855705,0.023310381919145584,0.0223844014108181
1772454810667462100,4.542462158203125,-0.01823652721941471,0.011403122916817665,0.036981720477342606
1772454810677479000,4.55247900390625,-0.011876899749040604,-0.010872887447476387,0.03597051650285721
1772454810687497000,4.5624970703125,-0.0046781087294220924,-0.022399315610527992,0.026871295645833015
1772454810697515000,4.572514892578125,-0.0012428972404450178,-0.020724453032016754,0.011963452212512493
1772454810707532800,4.58253271484375,-0.0006729807937517762,-0.012813000939786434,-0.0019475696608424187
1772454810717551000,4.592551025390625,0.0008372978190891445,-0.0062421830371022224,-0.019121496006846428
1772454810727569200,4.602569091796875,0.00270683690905571,-0.002332396572455764,-0.03008865937590599
1772454810737586000,4.6125859375,-0.00041758365114219487,0.00018269284919369966,-0.0338762067258358
1772454810747604000,4.62260400390625,-0.008252870291471481,0.0014679343439638615,-0.029029253870248795
1772454810757622000,4.6326220703125,-0.012165053747594357,-0.0018370485631749034,-0.017292970791459084
1772454810767639800,4.642639892578125,-0.01691746525466442,-0.00014620754518546164,-0.005093295592814684
1772454810777658000,4.652658203125,-0.01997610554099083,0.010894459672272205,0.004825115203857422
1772454810787676200,4.66267626953125,-0.02003336325287819,0.02515568770468235,0.013085441663861275
1772454810797693000,4.67269287109375,-0.015752332285046577,0.022770026698708534,0.016415458172559738
1772454810807711000,4.6827109375,-0.013550962321460247,0.00839588139206171,0.011170096695423126
1772454810817729000,4.69272900390625,-0.00714739179238677,-0.002266882685944438,0.0019891150295734406
1772454810827747000,4.7027470703125,-0.008592156693339348,-0.0013438310706987977,-0.009457417763769627
1772454810837764900,4.712764892578125,-0.012293950654566288,0.002481799805536866,-0.011766377836465836
1772454810847783200,4.722783203125,-0.010598848573863506,0.003725229762494564,-0.006610231939703226
1772454810857801000,4.732801025390625,-0.01305454969406128,-0.0006050702068023384,-0.005736715160310268
1772454810867818000,4.74281787109375,-0.012851083651185036,-0.0036330842413008213,-0.004977447912096977
1772454810877836000,4.7528359375,-0.01230726670473814,0.0018663433147594333,-0.0017291904659941792
1772454810887854000,4.76285400390625,-0.0162412878125906,0.010357033461332321,0.005679723806679249
1772454810897872000,4.772871826171875,-0.014489727094769478,0.010461162775754929,0.007766310125589371
1772454810907890200,4.78289013671875,-0.01016821525990963,0.0007115966291166842,0.006306099239736795
1772454810917908000,4.792907958984375,-0.004833104554563761,-0.009492837823927402,-0.0019800602458417416
1772454810927925000,4.802925048828125,-0.005658951122313738,-0.008859271183609962,-0.01124892570078373
1772454810937943000,4.812943115234375,-0.005519134923815727,-0.006384928710758686,-0.014328339137136936
1772454810947961000,4.822961181640625,-0.012945625931024551,-0.0015986956423148513,-0.026390329003334045
1772454810957979000,4.832978759765625,-0.009457684122025967,-0.0004415521107148379,-0.027516046538949013
1772454810967997200,4.8429970703125,-0.01007899921387434,-0.0007643272401764989,-0.028022047132253647
1772454810978015000,4.853014892578125,-0.006315952632576227,0.0010223875287920237,-0.016084427013993263
1772454810988032000,4.863031982421875,-0.00908723846077919,0.008533300831913948,0.0037955371662974358
1772454810998050000,4.873050048828125,-0.011203119531273842,0.00974317453801632,0.015265239402651787
1772454811008068000,4.883068115234375,-0.009579390287399292,0.0016176040517166257,0.02274685725569725
1772454811018086000,4.8930859375,-0.01011228933930397,-0.006654706783592701,0.01649508625268936
1772454811028104200,4.903104248046875,-0.008467254228889942,-0.0054637412540614605,0.006424343679100275
1772454811038122000,4.9131220703125,-0.009246229194104671,0.0046695866622030735,-0.0031667647417634726
1772454811048140000,4.92314013671875,-0.009237440302968025,0.01152589451521635,-0.017019197344779968
1772454811058157000,4.933156982421875,-0.0062850601971149445,0.009578058496117592,-0.024656077846884727
1772454811068175000,4.943175048828125,-0.004208593629300594,0.009983125142753124,-0.02574610896408558
1772454811078193000,4.95319287109375,-0.007178284227848053,-0.0005201153689995408,-0.011020160280168056
1772454811088211000,4.9632109375,-0.0010807107901200652,-0.009333048015832901,0.005066663958132267
1772454811098229000,4.97322900390625,0.0012405004817992449,-0.019423766061663628,0.014142184518277645
1772454811108247000,4.9832470703125,-0.001973136095330119,-0.01435124222189188,0.023842481896281242
1772454811118264000,4.99326416015625,-0.004580104257911444,0.0003020024741999805,0.02527765929698944
1772454811128282000,5.0032822265625,-0.0067828050814569,0.0037713022902607918,0.02261955849826336
1772454811138300000,5.0132998046875,-0.0056712012737989426,-0.0028788771014660597,0.012973322533071041
1772454811148318000,5.02331787109375,-0.0039278962649405,-0.0041497377678751945,0.007552458439022303
1772454811158336000,5.0333359375,-0.005374791566282511,0.0006948187365196645,0.0012663330417126417
1772454811168354000,5.04335400390625,-0.0057348511181771755,0.004691424313932657,0.0002817624481394887
1772454811178371800,5.053371826171875,-0.003707919269800186,-0.0017417073249816895,-0.0003206445835530758
1772454811188389000,5.06338916015625,-0.00014647385978605598,-0.011997274123132229,0.0016844493802636862
1772454811198407000,5.073406982421875,-0.005745237227529287,-0.013436180539429188,-0.0034147051628679037
1772454811208425000,5.083425048828125,-0.006432333029806614,0.005577990785241127,-0.004926049150526524
1772454811218443000,5.093443115234375,-0.008547415025532246,0.013935789465904236,0.006413690745830536
1772454811228461000,5.1034609375,-0.010982343927025795,0.013272395357489586,0.019391806796193123
1772454811238478800,5.113478759765625,-0.0072989254258573055,0.005826996639370918,0.02791019342839718
1772454811248496000,5.12349609375,-0.0075873457826673985,0.00538437906652689,0.03050917387008667
1772454811258514000,5.133513916015625,-0.005881324876099825,0.00950668565928936,0.020651748403906822
1772454811268532000,5.143531982421875,-0.0005230448441579938,-0.0006269080913625658,0.009149822406470776
1772454811278550000,5.153550048828125,-0.007317834068089724,-0.01757446676492691,-0.0018160095205530524
1772454811288568000,5.163568115234375,-0.010514692403376102,-0.011736550368368626,-0.016497217118740082
1772454811298585900,5.1735859375,-0.010070211254060268,0.00737269502133131,-0.03255794197320938
1772454811308603100,5.18360302734375,-0.007683219853788614,0.005576659459620714,-0.046172287315130234
1772454811318621000,5.193620849609375,0.001264735241420567,-0.004919923841953278,-0.0528259314596653
1772454811328639000,5.203638916015625,0.0068144965916872025,-0.0032237565610557795,-0.04776938632130623
1772454811338657000,5.213656982421875,0.006674946751445532,-0.0014154701493680477,-0.028623921796679497
1772454811348675000,5.223675048828125,0.0024501082953065634,-0.013034841977059841,-0.007604389917105436
1772454811358692900,5.23369287109375,0.004818989895284176,-0.022457106038928032,0.0007819040911272168
1772454811368710100,5.243710205078125,0.007977498695254326,-0.00815060455352068,-0.005906358826905489
1772454811378728000,5.25372802734375,0.007982824929058552,0.009560215286910534,-0.008615858852863312
1772454811388746000,5.26374609375,0.006227003410458565,0.011834288947284222,-0.005268531385809183
1772454811398763800,5.273763671875,0.005066131241619587,0.0022189458832144737,0.0013827132061123848
1772454811408782000,5.283781982421875,0.005806223955005407,-0.011111507192254066,0.005906624719500542
1772454811418799900,5.2937998046875,0.004563060123473406,-0.019040802493691444,0.00392736354842782
1772454811428818000,5.30381787109375,0.001865011639893055,-0.007814247161149979,0.001439971150830388
1772454811438835000,5.3138349609375,-0.0030280142091214657,0.0034234935883432627,-0.0031704932916909456
1772454811448853000,5.32385302734375,-0.007244330830872059,0.002095375210046768,-0.007517304737120867
1772454811458870800,5.333870849609375,-0.00996128749102354,0.0021912488155066967,-0.019176624715328217
1772454811468889000,5.34388916015625,-0.010666226036846638,-0.0016884441720321774,-0.03434945270419121
1772454811478907100,5.3539072265625,-0.010272078216075897,-0.011574630625545979,-0.03653084486722946
1772454811488925000,5.363925048828125,-0.010260626673698425,-0.02002776972949505,-0.04043743759393692
1772454811498942000,5.37394189453125,-0.008135158568620682,-0.017175525426864624,-0.03904353827238083
1772454811508960000,5.3839599609375,-0.005993976723402739,-0.0038333539851009846,-0.03157363831996918
1772454811518977800,5.393977783203125,-0.0046328348107635975,0.007387608755379915,-0.022598786279559135
1772454811528996000,5.40399609375,-0.006894924212247133,0.014485199004411697,-0.008155664429068565
1772454811539014100,5.41401416015625,-0.0038163098506629467,0.0049098036251962185,-0.00063356600003317
1772454811549032000,5.424031982421875,-0.003166498616337776,-0.00723447697237134,-0.0036615801509469748
1772454811559049000,5.434049072265625,-0.0019688750617206097,-0.014989868737757206,-0.013577328063547611
1772454811569067000,5.44406689453125,-0.0006756439688615501,-0.01871483214199543,-0.026917368173599243
1772454811579085000,5.4540849609375,-0.0034208304714411497,-0.020433636382222176,-0.03785257413983345
1772454811589103000,5.46410302734375,-0.004504736978560686,-0.013019129633903503,-0.04146994650363922
1772454811599121200,5.47412109375,-0.003391801845282316,-0.015238607302308083,-0.02949610725045204
1772454811609139000,5.484138916015625,-0.006396380253136158,-0.020660536363720894,-0.01525964681059122
1772454811619156000,5.494156005859375,-0.008377771824598312,-0.015408516861498356,-0.006573480553925037
1772454811629174000,5.504174072265625,-0.0030333404429256916,-0.0005190501105971634,0.0025742114521563053
1772454811639192000,5.514192138671875,-0.003564907470718026,0.0017233315156772733,0.0057257963344454765
1772454811649209900,5.5242099609375,-0.002058623591437936,0.0012857741676270962,0.001413073274306953
1772454811659228200,5.534228271484375,0.000687361869495362,0.000428502622526139,-0.009164203889667988
1772454811669246000,5.544245849609375,0.004502606578171253,0.0009566074586473405,-0.013600231148302555
1772454811679264000,5.554263916015625,0.006617156323045492,-0.0020967067684978247,-0.015607455745339394
1772454811689281000,5.564281005859375,0.005007009021937847,-0.011402057483792305,-0.013854296877980232
1772454811699299000,5.574299072265625,0.00923451129347086,-0.01780589483678341,-0.01720615103840828
1772454811709316900,5.58431689453125,0.009905361570417881,-0.0129323098808527,-0.020254138857126236
1772454811719335200,5.594335205078125,0.00860307551920414,-0.0021901836153119802,-0.022855514660477638
1772454811729353000,5.60435302734375,0.004582501482218504,0.005897836294025183,-0.01678563840687275
1772454811739371000,5.61437109375,0.004664526786655188,0.01661492884159088,-0.011021225713193417
1772454811749388000,5.624387939453125,0.002525209216400981,0.02413010410964489,-0.006138852797448635
1772454811759406000,5.634406005859375,0.0008013451588340104,0.027967719361186028,-0.006942062173038721
1772454811769424000,5.644423828125,-0.0009723200928419828,0.0231774915009737,-0.00603472301736474
1772454811779442200,5.654442138671875,0.0006274407496675849,0.012380236759781837,-0.00814767461270094
1772454811789460000,5.6644599609375,-0.0007888282998465002,-0.0009398295660503209,-0.01575925573706627
1772454811799478000,5.67447802734375,0.00626002624630928,-0.013020726852118969,-0.02623693086206913
1772454811809495000,5.6844951171875,0.005940979812294245,-0.016269251704216003,-0.030891869217157364
1772454811819513000,5.69451318359375,0.002198705682530999,-0.00971814151853323,-0.027750937268137932
1772454811829531000,5.70453076171875,-0.0013768542557954788,0.0016088156262412667,-0.0229782871901989
1772454811839549200,5.714549072265625,0.002898051869124174,0.0076302229426801205,-0.017429856583476067
1772454811849567000,5.72456689453125,0.00009960222087102011,0.008175904862582684,-0.01323804073035717
1772454811859585000,5.7345849609375,0.003404052462428808,0.0075750951655209064,-0.009453422389924526
1772454811869602000,5.74460205078125,0.0021435783710330725,0.0057039582170546055,-0.004160390235483646
1772454811879620000,5.7546201171875,0.0006325007416307926,-0.0022740731947124004,-0.00048176583368331194
1772454811889638000,5.764637939453125,0.005671733990311623,-0.006301038898527622,-0.005374791566282511
1772454811899656000,5.774656005859375,0.005676794331520796,-0.009170595556497574,-0.007416104432195425
1772454811909674000,5.784674072265625,0.0015672702575102448,-0.006580404471606016,-0.004861067980527878
1772454811919692000,5.794692138671875,-0.0033252229914069176,0.004731105640530586,-0.005397961009293795
1772454811929709000,5.804708984375,0.0009715211344882846,0.008814264088869095,0.001448759576305747
1772454811939727000,5.81472705078125,0.0036615801509469748,0.00959616806358099,0.00805899128317833
1772454811949745000,5.824744873046875,-0.002560629276558757,0.011947739869356155,0.008186024613678455
1772454811959763000,5.834762939453125,-0.00341523764654994,0.0167936272919178,0.004334028344601393
1772454811969781000,5.844781005859375,0.001764344167895615,0.020982246845960617,-0.0018804579740390182
1772454811979799000,5.854799072265625,0.0006623281515203416,0.015341672115027905,-0.008227569982409477
1772454811989816800,5.86481689453125,-0.003917243797332048,0.010966364294290543,-0.006056561134755611
1772454811999833900,5.874833740234375,-0.00014753911818843335,0.007758054416626692,-0.004680239129811525
1772454812009851600,5.8848515625,0.00009400958515470847,0.00980602577328682,0.0001757686259225011
1772454812019869700,5.89486962890625,0.0026346652302891016,0.012495552189648151,0.005513009615242481
1772454812029887700,5.9048876953125,0.002814428647980094,0.01248995866626501,0.006169212516397238
1772454812039905800,5.91490576171875,0.00025832661776803434,0.006094910204410553,0.002498843939974904
1772454812049923600,5.924923583984375,0.0013869742397218943,0.0012708604335784912,-0.004411792848259211
1772454812059940900,5.93494091796875,0.0024975123815238476,-0.003934287931770086,-0.007464840542525053
1772454812069958700,5.944958740234375,0.0029944581910967827,-0.007755924016237259,-0.002817091764882207
1772454812079976700,5.954976806640625,0.0008303736103698611,-0.007190002128481865,-0.0023616913240402937
1772454812089994800,5.964994873046875,-0.003430151380598545,-0.0028506475500762463,0.001386707997880876
1772454812100012800,5.9750126953125,-0.004064250271767378,0.005274923052638769,0.0002426139690214768
1772454812110030600,5.985030517578125,-0.00609277980402112,0.007731689140200615,0.0029262814205139875
1772454812120047900,5.9950478515625,-0.006541789043694735,0.010330934077501297,0.0012381036067381501
1772454812130065700,6.005065673828125,-0.002846919232979417,0.008213454857468605,-0.002049568807706237
1772454812140083700,6.015083740234375,0.002621882129460573,0.002356631215661764,-0.007149788551032543
1772454812150101800,6.025101806640625,0.0006149238906800747,-0.005056543741375208,-0.013007943518459797
1772454812160119800,6.035119873046875,0.0004996090428903699,-0.0037084517534822226,-0.01381008792668581
1772454812170137600,6.0451376953125,-0.00207726564258337,0.0026229473296552896,-0.009188438765704632
1772454812180155000,6.05515478515625,-0.001868473831564188,0.008816128596663475,0.004866660572588444
1772454812190172700,6.065172607421875,-0.0087807085365057,0.010389257222414017,0.014463361352682114
1772454812200190700,6.075190673828125,-0.00777696305885911,0.011590342968702316,0.015084942802786827
1772454812210208800,6.085208740234375,-0.00836898386478424,0.01056529302150011,0.009153284132480621
1772454812220226800,6.095226806640625,-0.00418382603675127,0.012498747557401657,0.0026551715563982725
1772454812230244600,6.10524462890625,-0.0049465554766356945,0.016435964033007622,-0.005601160228252411
1772454812240262000,6.115261962890625,0.0005611280212178826,0.012193016707897186,-0.012004731222987175
1772454812250279700,6.12527978515625,0.0046149916015565395,0.004286890383809805,-0.0170330461114645
1772454812260297700,6.135297607421875,0.005357214715331793,0.000931307440623641,-0.013218067586421967
1772454812270315500,6.1453154296875,0.0017409083666279912,-0.0023371900897473097,-0.008046475239098072
1772454812280333800,6.155333740234375,-0.002252235310152173,-0.006726612336933613,-0.002371811307966709
1772454812290351600,6.1653515625,-0.0037979339249432087,-0.004217648413032293,-0.003276220755651593
1772454812300369700,6.17536962890625,-0.0038775624707341194,0.001912948559038341,-0.003507116809487343
1772454812310386700,6.18538671875,-0.00192226970102638,0.005664543714374304,-0.0065593658946454525
1772454812320404700,6.19540478515625,0.0006370281334966421,0.006931409239768982,-0.004120443016290665
1772454812330422500,6.205422607421875,0.003662378992885351,0.01065291091799736,-0.009977532550692558
1772454812340440800,6.21544091796875,0.005598497111350298,0.012181298807263374,-0.014591991901397705
1772454812350459000,6.225458984375,0.004697283264249563,0.011591142043471336,-0.014013287611305714
1772454812360476700,6.2354765625,0.00005832322858623229,0.004548146389424801,-0.008394017815589905
1772454812370493700,6.24549365234375,-0.0001073253879440017,0.0010298443958163261,0.0028370653744786978
1772454812380511700,6.25551171875,0.006506102625280619,-0.003007774008437991,0.018693260848522186
1772454812390529500,6.265529541015625,0.007892544381320477,-0.003163569141179323,0.023541545495390892
1772454812400547800,6.2755478515625,0.00848563015460968,0.003947070799767971,0.023373499512672424
1772454812410566000,6.28556591796875,0.004323641769587994,0.010637996718287468,0.019579026848077774
1772454812420583700,6.295583740234375,0.0035167040769010782,0.01685088500380516,0.01335601881146431
1772454812430600700,6.3056005859375,0.0021811288315802813,0.012065451592206955,0.006733536254614592
1772454812440618800,6.31561865234375,0.0033300165086984634,0.006599579472094774,0.0007539408979937434
1772454812450636500,6.325636474609375,0.0033577135764062405,0.00869095977395773,0.00007217166421469301
1772454812460654800,6.33565478515625,0.004721784498542547,0.006347378250211477,0.007969776168465614
1772454812470673000,6.3456728515625,0.0009949569357559085,0.005862948950380087,0.01630759984254837
1772454812480690700,6.355690673828125,0.0033127060160040855,0.006209426559507847,0.018790198490023613
1772454812490707700,6.365707763671875,0.002938798163086176,0.0023182816803455353,0.015104117803275585
1772454812500725800,6.375725830078125,0.0015065502375364304,0.0017859158106148243,0.003974501509219408
1772454812510743800,6.385743896484375,-0.0001715075777610764,0.0028445222415030003,-0.0035635759122669697
1772454812520761900,6.395761962890625,-0.0015257250051945448,0.00583791546523571,-0.01155652105808258
1772454812530780000,6.40577978515625,-0.003938548732548952,0.005870406050235033,-0.01047421246767044
1772454812540797700,6.415797607421875,-0.005216599907726049,0.007724765222519636,-0.009647035039961338
1772454812550815700,6.425815673828125,-0.003120958572253585,0.012018313631415367,-0.003145459573715925
1772454812560832800,6.435832763671875,-0.005336708389222622,0.01264255866408348,0.008009457029402256
1772454812570850800,6.445850830078125,-0.00401578051969409,0.005832589231431484,0.016441557556390762
1772454812580868600,6.45586865234375,-0.0065077003091573715,0.0019076223252341151,0.02418736182153225
1772454812590887000,6.465886962890625,-0.010047041811048985,-0.002159024588763714,0.025237979367375374
1772454812600904700,6.47590478515625,-0.011427357792854309,0.006335127633064985,0.019887154921889305
1772454812610922800,6.4859228515625,-0.011953598819673061,0.010804444551467896,0.016889235004782677
1772454812620939800,6.495939697265625,-0.011955462396144867,0.013426858931779861,0.009257680736482143
1772454812630957800,6.505957763671875,-0.012118714861571789,0.011502192355692387,-0.0026431872975081205
1772454812640975600,6.5159755859375,-0.008162588812410831,0.004366518929600716,-0.012293151579797268
1772454812650994000,6.525993896484375,-0.0057100835256278515,0.003227751236408949,-0.014099307358264923
1772454812661011700,6.53601171875,-0.005119660869240761,-0.0036887445021420717,-0.013166667893528938
1772454812671029800,6.54602978515625,-0.009110940620303154,-0.008160724304616451,-0.010270747356116772
1772454812681046800,6.556046875,-0.009767675772309303,-0.004304999951273203,0.0008372978190891445
1772454812691064800,6.56606494140625,-0.01420396938920021,0.0040855552069842815,0.005479986313730478
1772454812701082600,6.57608251953125,-0.015021826140582561,0.011432151310145855,0.014122210443019867
1772454812711101000,6.586100830078125,-0.013199691660702229,0.011693674139678478,0.014274543151259422
1772454812721118700,6.59611865234375,-0.00803289283066988,0.01318211480975151,0.010904845781624317
1772454812731136800,6.60613671875,-0.006933007389307022,0.015000254847109318,0.007303186692297459
1772454812741153800,6.61615380859375,-0.01068220566958189,0.006867493502795696,0.004838431254029274
1772454812751171800,6.626171875,-0.008441953919827938,0.0010269149206578732,-0.007766842842102051
1772454812761189600,6.636189697265625,-0.006669620517641306,0.0034051176626235247,-0.016283098608255386
1772454812771208000,6.6462080078125,-0.00945289060473442,0.0034139060880988836,-0.01918887533247471
1772454812781225700,6.656225830078125,-0.012296080589294434,0.0048946235328912735,-0.012228969484567642
1772454812791243800,6.666243896484375,-0.013370933011174202,-0.0008660599705763161,-0.009943444281816483
1772454812801260800,6.6762607421875,-0.011384480632841587,-0.004336957819759846,-0.0105314701795578
1772454812811278800,6.68627880859375,-0.012018846347928047,-0.0038988678716123104,-0.0030099046416580677
1772454812821296600,6.696296630859375,-0.007312507834285498,0.0008021441171877086,-0.0036213663406670094
1772454812831314700,6.706314697265625,-0.010035323910415173,0.008006793446838856,-0.010908573865890503
1772454812841332700,6.716332763671875,-0.007527424953877926,0.013311544433236122,-0.017708955332636833
1772454812851350800,6.726350830078125,-0.00603525573387742,0.011498730629682541,-0.016874853521585464
1772454812861367800,6.736367919921875,-0.008493087254464626,0.009269398637115955,-0.01727352850139141
1772454812871385900,6.7463857421875,-0.010575146414339542,0.003293797606602311,-0.022252308204770088
1772454812881403600,6.756403564453125,-0.015035142190754414,-0.00782703049480915,-0.03327300027012825
1772454812891421700,6.766421630859375,-0.011580755934119225,-0.016405338421463966,-0.044372525066137314
1772454812901439700,6.776439697265625,-0.010967962443828583,-0.008647018112242222,-0.0473448783159256
1772454812911457800,6.786457763671875,-0.010374876670539379,-0.0022655511274933815,-0.04705938696861267
1772454812921474800,6.796474853515625,-0.0054754591546952724,0.0051867724396288395,-0.04673554748296738
1772454812931492900,6.806492919921875,-0.006313289515674114,-0.0007608651067130268,-0.04900083318352699
1772454812941510700,6.8165107421875,-0.0041555967181921005,-0.0018482337472960353,-0.06287217140197754
1772454812951528700,6.82652880859375,-0.000761664065066725,0.0059987702406942844,-0.07487104833126068
1772454812961546800,6.836546630859375,-0.00027084347675554454,0.008098140358924866,-0.08693356812000275
1772454812971564800,6.846564697265625,-0.004743622615933418,-0.001032241270877421,-0.07803035527467728
1772454812981581600,6.85658154296875,-0.008360727690160275,-0.007360444404184818,-0.06379895657300949
1772454812991599900,6.866599853515625,-0.0015068164793774486,-0.003049852093681693,-0.040886979550123215
1772454813001618000,6.876617919921875,-0.005882123950868845,0.009247826412320137,-0.02473703771829605
1772454813011636000,6.886635986328125,-0.004246410448104143,0.010458766482770443,-0.00777696305885911
1772454813021654000,6.896654052734375,-0.0019086875254288316,0.008768990635871887,0.0057614827528595924
1772454813031672000,6.906672119140625,-0.0014436995843425393,0.008109591901302338,0.016466325148940086
1772454813041689900,6.91668994140625,-0.0000977380113909021,0.004718055948615074,0.02008689194917679
1772454813051707100,6.92670703125,-0.0024583640042692423,-0.0007238471880555153,0.017306551337242126
1772454813061725000,6.936724853515625,0.0036674391012638807,-0.000639691308606416,0.01438240148127079
1772454813071743000,6.946742919921875,0.0043899547308683395,0.003181145992130041,0.012132296338677406
1772454813081760800,6.9567607421875,0.004959604702889919,0.0029622339643538,0.005234975833445787
1772454813091779000,6.966779052734375,0.0021845910232514143,0.0029084382113069296,0.002811232814565301
1772454813101796900,6.976796875,0.0044168527238070965,0.00024048343766480684,0.0009318400407209992
1772454813111814100,6.986814208984375,0.0015222628135234118,0.0024748756550252438,0.002285258611664176
1772454813121832000,6.99683203125,-0.0046296389773488045,-0.00033582461765035987,0.007785751484334469
1772454813131850000,7.00685009765625,0.0003802994033321738,-0.003724430687725544,0.007127418182790279
1772454813141867800,7.01686767578125,0.0009126652730628848,-0.003022421384230256,0.001716673607006669
1772454813151886000,7.026885986328125,0.0021196098532527685,0.0026098978705704212,-0.00324799120426178
1772454813161903900,7.03690380859375,0.0023883229587227106,0.0070275492034852505,-0.006430202629417181
1772454813171921000,7.0469208984375,0.005228051450103521,0.014215154573321342,-0.004083691164851189
1772454813181939000,7.05693896484375,0.003721501212567091,0.015223161317408085,0.004844822455197573
1772454813191957000,7.06695703125,0.0009118663729168475,0.008418518118560314,0.012741095386445522
1772454813201974800,7.076974853515625,0.0019441075855866075,0.005239502992480993,0.017961690202355385
1772454813211993000,7.0869931640625,0.004761732183396816,0.012527775950729847,0.020425911992788315
1772454813222011000,7.097010986328125,0.005812881514430046,0.012679043225944042,0.015504124574363232
1772454813232028000,7.10702783203125,0.004197141621261835,0.010117349214851856,0.008718390017747879
1772454813242046000,7.1170458984375,0.003887682454660535,0.0054786549881100655,0.004963333252817392
1772454813252064000,7.12706396484375,0.007573763839900494,-0.006006227340549231,0.001529187080450356
1772454813262081800,7.137081787109375,0.010237457230687141,-0.0070762853138148785,0.0014471617760136724
1772454813272100000,7.14710009765625,0.01200073678046465,-0.005194495897740126,-0.0019345202017575502
1772454813282118000,7.157117919921875,0.006106095854192972,-0.004406466148793697,-0.011275824159383774
1772454813292135000,7.167135009765625,0.006559898145496845,0.0013294500531628728,-0.016086025163531303
1772454813302153000,7.177153076171875,0.0052352421917021275,0.006054163910448551,-0.017347831279039383
1772454813312171000,7.1871708984375,0.0063034361228346825,0.00711756432428956,-0.012380769476294518
1772454813322188800,7.197188720703125,0.004745753016322851,0.005825931206345558,-0.010927216149866581
1772454813332206800,7.207206787109375,0.0017512947088107467,0.007656854577362537,-0.007809986360371113
1772454813342225000,7.217224853515625,0.00449781259521842,0.005258944351226091,-0.006015814375132322
1772454813352242000,7.227241943359375,0.005781456362456083,0.0037534593138843775,-0.0033936661202460527
1772454813362260000,7.237260009765625,0.006698915269225836,0.004202734678983688,-0.004737497307360172
1772454813372278000,7.247278076171875,0.0055803875438869,0.0059662796556949615,-0.0006325007416307926
1772454813382295800,7.2572958984375,0.002758768619969487,0.009644637815654278,-0.00016058860637713224
1772454813392313900,7.26731396484375,0.002843989757820964,0.006762565113604069,-0.002525475574657321
1772454813402332000,7.277331787109375,-0.0007350324303843081,0.0026727484073489904,-0.005606220569461584
1772454813412349000,7.287348876953125,-0.0011475561186671257,-0.0010181264951825142,-0.005842975340783596
1772454813422367000,7.297366943359375,0.0024682176299393177,-0.0020903151016682386,-0.008421714417636395
1772454813432385000,7.307385009765625,0.009763947688043118,0.0008058725506998599,-0.011238006874918938
1772454813442402800,7.31740283203125,0.008141282945871353,0.009622800163924694,-0.009258479811251163
1772454813452420900,7.3274208984375,0.007739678490906954,0.01829857937991619,-0.010881676338613033
1772454813462439000,7.33743896484375,0.005293298978358507,0.02588006667792797,-0.011471832171082497
1772454813472456000,7.3474560546875,0.009829461574554443,0.022409435361623764,-0.01209767535328865
1772454813482473700,7.3574736328125,0.009362342767417431,0.012570120394229889,-0.016469521448016167
1772454813492492000,7.367491943359375,0.010419351048767567,0.008130097761750221,-0.021984394639730453
1772454813502509800,7.377509765625,0.012648151256144047,0.011420433409512043,-0.02376525104045868
1772454813512528000,7.38752783203125,0.011001784354448318,0.011529623530805111,-0.02267761528491974
1772454813522546000,7.3975458984375,0.012385829351842403,0.008548214100301266,-0.016100673004984856
1772454813532563000,7.40756298828125,0.012593556195497513,0.00902491994202137,-0.007113036699593067
1772454813542580700,7.417580810546875,0.01728125289082527,0.016500679776072502,-0.006157494615763426
1772454813552599000,7.42759912109375,0.02171728014945984,0.02580416575074196,-0.005483714863657951
1772454813562616800,7.437616943359375,0.020740965381264687,0.02864176407456398,-0.011080614291131496
1772454813572635000,7.447634765625,0.014208496548235416,0.03104899637401104,-0.015956861898303032
1772454813582653000,7.45765283203125,0.012684103101491928,0.0264838058501482,-0.021855497732758522
1772454813592670000,7.467669921875,0.012148541398346424,0.014916897751390934,-0.020665597170591354
1772454813602687700,7.477687744140625,0.0020991035271435976,-0.004000067710876465,-0.02034388668835163
1772454813612706000,7.4877060546875,-0.0032778186723589897,-0.016957411542534828,-0.021379590034484863
1772454813622723800,7.497723876953125,-0.0022511701099574566,-0.0124233802780509,-0.02178598940372467
1772454813632742000,7.507741943359375,-0.0026812704745680094,-0.004714327864348888,-0.018153438344597816
1772454813642759700,7.517759765625,-0.0012423646403476596,0.008792426437139511,-0.00854608416557312
1772454813652778000,7.527778076171875,-0.0019446401856839657,0.021693311631679535,0.0017925737192854285
1772454813662794800,7.537794677734375,-0.005566006526350975,0.02508990652859211,0.01341620646417141
1772454813672813000,7.54781298828125,-0.005765743553638458,0.021941252052783966,0.023374564945697784
1772454813682830800,7.557830810546875,-0.0002820287481881678,0.01028752513229847,0.02413196861743927
1772454813692849000,7.567848876953125,-0.0029265477787703276,-0.003341468283906579,0.020228305831551552
1772454813702866700,7.57786669921875,-0.0033957967534661293,-0.005916478578001261,0.012943495064973831
1772454813712885000,7.587885009765625,-0.0033017871901392937,-0.007420099340379238,0.009052883833646774
1772454813722901800,7.59790185546875,0.0009723200928419828,-0.011427091434597969,-0.00010945591930067167
1772454813732919800,7.607919921875,0.001193096162751317,-0.0076280920766294,-0.0024732777383178473
1772454813742937900,7.617937744140625,-0.0020897823851555586,-0.0018311894964426756,-0.0033848776947706938
1772454813752956000,7.627955810546875,-0.003756921272724867,0.002673813607543707,-0.00036218989407643676
1772454813762974000,7.637973876953125,-0.0028597023338079453,0.007162838242948055,0.005250688176602125
1772454813772992000,7.647991943359375,-0.0015877765836194158,-0.00021784658019896597,0.0065100970678031445
1772454813783008800,7.6580087890625,-0.004799016285687685,-0.007384945638477802,0.008294414728879929
1772454813793026800,7.66802685546875,-0.006732737645506859,-0.012223643250763416,0.006976949516683817
1772454813803044900,7.678044921875,-0.008036887273192406,-0.005820072256028652,0.0027811392210423946
1772454813813063000,7.68806298828125,-0.008256332017481327,0.004770254250615835,0.0013528858544304967
1772454813823081000,7.6980810546875,-0.003641073824837804,0.004869323689490557,0.0013339773286134005
1772454813833099000,7.70809912109375,-0.0036301547661423683,0.004715659189969301,0.003924966789782047
1772454813843115800,7.71811572265625,-0.0011779161868616939,0.0034967304673045874,0.0027438548859208822
1772454813853133800,7.7281337890625,0.0017510283505544066,0.0065103634260594845,0.00440912926569581
1772454813863152000,7.738152099609375,0.001353684812784195,0.008799350820481777,0.0018610169645398855
1772454813873170000,7.748169921875,0.0012362393317744136,0.0024655545130372047,0.00953784491866827
1772454813883188000,7.75818798828125,0.00028628981090150774,-0.011332815513014793,0.009877397678792477
1772454813893205800,7.768205810546875,0.003421895671635866,-0.016595222055912018,0.011056379415094852
1772454813903222800,7.778222900390625,0.0037702370900660753,-0.018135327845811844,0.00458569684997201
1772454813913240800,7.78824072265625,0.005051483865827322,-0.0103141563013196,0.0003765709698200226
1772454813923259100,7.798259033203125,0.0010090717114508152,0.0009025452891364694,0.0037177728954702616
1772454813933277000,7.80827685546875,0.0012777847005054355,0.005567071959376335,0.012753346003592014
1772454813943295000,7.818294921875,-0.0005803027888759971,0.005049619823694229,0.0237593911588192
1772454813953312800,7.828312744140625,-0.005643238313496113,0.004326038993895054,0.028621258214116096
1772454813963329800,7.838329833984375,-0.0033486587926745415,-0.0020101540721952915,0.029393574222922325
1772454813973347800,7.848347900390625,-0.004662129562348127,0.000041811628761934116,0.018617626279592514
1772454813983366000,7.858365966796875,-0.004289287142455578,0.0028551749419420958,0.005345230456441641
1772454813993384000,7.868384033203125,-0.0018604843644425273,0.007409979589283466,-0.008241684176027775
1772454814003402200,7.87840234375,-0.0038048583082854748,0.013276124373078346,-0.015555789694190025
1772454814013420300,7.888420166015625,-0.0032147017773240805,0.0049026133492589,-0.01913507841527462
1772454814023437300,7.898437255859375,-0.0029020465444773436,-0.0029294772539287806,-0.01595206931233406
1772454814033455000,7.908455078125,0.00042024682625196874,-0.007938616909086704,-0.007896805182099342
1772454814043473200,7.91847314453125,-0.002939330879598856,-0.015717709437012672,0.012152536772191525
1772454814053491500,7.928491455078125,0.001121723442338407,-0.009340505115687847,0.02636502869427204
1772454814063509200,7.93850927734375,0.004347610287368298,-0.0027566379867494106,0.03623896464705467
1772454814073527300,7.94852734375,0.0062424493953585625,0.004875448998063803,0.03723232448101044
1772454814083544300,7.95854443359375,0.006975884083658457,0.017011474817991257,0.03253823518753052
1772454814093562000,7.96856201171875,0.004960670135915279,0.016525713726878166,0.012735769152641296
1772454814103580200,7.978580078125,0.002989931032061577,0.016636233776807785,-0.0016165387351065874
1772454814113598500,7.988598388671875,0.0013811152894049883,0.011807125061750412,-0.014169881120324135
1772454814123616300,7.9986162109375,0.000005858954409632133,-0.0023124227300286293,-0.01720402017235756
1772454814133634300,8.00863427734375,-0.0025603631511330605,-0.010032926686108112,-0.01624235324561596
1772454814143651300,8.0186513671875,-0.004373443312942982,-0.015388543717563152,-0.01824158802628517
1772454814153669400,8.02866943359375,-0.009065666235983372,-0.005880525801330805,-0.013402091339230537
1772454814163687200,8.038687255859376,-0.010274741798639297,-0.0008831042214296758,-0.00686136819422245
1772454814173705200,8.048705322265626,-0.008064850233495235,-0.0035095135681331158,-0.003954527899622917
1772454814183723300,8.05872314453125,-0.005893841851502657,-0.000362988852430135,-0.009240902960300446
1772454814193741300,8.0687412109375,0.000021837920940015465,0.008393218740820885,-0.023871511220932007
1772454814203758300,8.07875830078125,-0.0007584682898595929,0.014759238809347153,-0.0325654000043869
1772454814213776400,8.0887763671875,-0.004008057527244091,0.013315538875758648,-0.03508714586496353
1772454814223794200,8.098794189453125,-0.002033855998888612,0.0016945693641901016,-0.03290548548102379
1772454814233812200,8.108812255859375,-0.0021845910232514143,-0.008138620294630527,-0.02365259826183319
1772454814243830300,8.118830322265625,-0.003120958572253585,-0.010203635320067406,-0.010498713701963425
1772454814253848300,8.128848388671875,-0.0029968551825731993,-0.012408998794853687,-0.0023012375459074974
1772454814263865300,8.138865234375,-0.0023097596131265163,-0.01079698745161295,-0.00028336033574305475
1772454814273883400,8.14888330078125,-0.00112465291749686,-0.004551608581095934,-0.001362473238259554
1772454814283901200,8.158901123046874,0.0010010822443291545,-0.004187820944935083,-0.012022840790450573
1772454814293919200,8.168919189453124,0.0030101709999144077,-0.0019121496006846428,-0.01985999196767807
1772454814303937300,8.178937255859376,-0.00031851406674832106,-0.0006926882197149098,-0.02431945502758026
1772454814313955300,8.188955322265626,-0.0016399745363742113,-0.001987517112866044,-0.02845853939652443
1772454814323972400,8.198972412109375,0.001190433045849204,-0.0076158419251441956,-0.023443540558218956
1772454814333990400,8.208990478515625,-0.0015414375811815262,-0.007634483743458986,-0.021588915959000587
1772454814344008200,8.21900830078125,-0.0007337008719332516,-0.0019947076216340065,-0.010990865528583527
1772454814354026200,8.229026123046875,-0.007496798411011696,0.006415022537112236,-0.005512743256986141
1772454814364044300,8.239044189453125,-0.00980309583246708,0.00455613574013114,0.0026085663121193647
1772454814374062300,8.249062255859375,-0.0073298183269798756,0.004091148264706135,0.00407437002286315
1772454814384079000,8.2590791015625,-0.006015548016875982,0.005865079816430807,0.004776645917445421
1772454814394097400,8.269097412109375,-0.008712797425687313,0.008319448679685593,-0.0009318400407209992
1772454814404115200,8.279115234375,-0.006000900641083717,0.0020873856265097857,-0.0026256104465574026
1772454814414133200,8.28913330078125,-0.002834668615832925,-0.0012399677652865648,-0.005130313336849213
1772454814424151300,8.2991513671875,-0.004021905828267336,0.005166266113519669,-0.005638444796204567
1772454814434169300,8.30916943359375,-0.007453921716660261,0.011806059628725052,-0.006021939683705568
1772454814444186000,8.31918603515625,-0.005757754202932119,0.010579407215118408,-0.003626160090789199
1772454814454204400,8.329204345703126,-0.004388356581330299,0.009946374222636223,-0.0041462755762040615
1772454814464222200,8.33922216796875,-0.004860801622271538,0.0032445292454212904,-0.0018956380663439631
1772454814474240300,8.349240234375,-0.009876066818833351,-0.006036853417754173,-0.001862614881247282
1772454814484258000,8.359258056640625,-0.014290256425738335,0.0014508900931105018,-0.01278770063072443
1772454814494276400,8.3692763671875,-0.013073990121483803,0.006570284720510244,-0.024119984358549118
1772454814504293000,8.379293212890625,-0.013621269725263119,0.01022600568830967,-0.02816559188067913
1772454814514311400,8.3893115234375,-0.016440225765109062,0.005362540949136019,-0.021648837253451347
1772454814524329200,8.3993291015625,-0.01423646043986082,0.0023848607670515776,-0.017675133422017097
1772454814534347300,8.40934716796875,-0.017556622624397278,0.0017153420485556126,-0.013757357373833656
1772454814544365000,8.419364990234374,-0.013591708615422249,0.002603239845484495,-0.003934820648282766
1772454814554383400,8.42938330078125,-0.01780669391155243,-0.0019140138756483793,0.009398828260600567
1772454814564400000,8.439400146484376,-0.016769126057624817,0.011638812720775604,0.018389659002423286
1772454814574418400,8.44941845703125,-0.016400810331106186,0.014225008897483349,0.029580796137452126
1772454814584436200,8.459436279296876,-0.01697392389178276,0.01649082638323307,0.03235660865902901
1772454814594454300,8.469454345703125,-0.017230119556188583,0.023076822981238365,0.0336756706237793
1772454814604472000,8.47947216796875,-0.018916167318820953,0.016696954146027565,0.027340011671185493
1772454814614490400,8.489490478515625,-0.018258100375533104,0.011730425991117954,0.009668339975178242
1772454814624507100,8.499507080078125,-0.018449846655130386,0.00039494677912443876,-0.0037143107037991285
1772454814634525200,8.509525146484375,-0.016352875158190727,-0.0076243639923632145,-0.012799951247870922
1772454814644543200,8.519543212890625,-0.01744583621621132,-0.006563093978911638,-0.010904046706855297
1772454814654561300,8.529561279296875,-0.017004283145070076,-0.0004724447790067643,-0.002141980454325676
1772454814664579000,8.5395791015625,-0.013547766953706741,0.00007243797881528735,0.01067980844527483
1772454814674597400,8.549597412109375,-0.014755244366824627,0.0031931300181895494,0.023242738097906113
1772454814684614100,8.5596142578125,-0.015215704217553139,0.009602559730410576,0.02791285701096058
1772454814694632200,8.569632080078126,-0.01684795506298542,0.01726553961634636,0.02461479790508747
1772454814704650200,8.579650146484376,-0.013608752749860287,0.014533402398228645,0.01654755137860775
1772454814714668300,8.589668212890626,-0.013611949048936367,0.007649663835763931,0.0031193606555461884
1772454814724686000,8.59968603515625,-0.008175372146070004,0.00467651104554534,-0.01119459792971611
1772454814734704400,8.609704345703125,-0.005338838789612055,0.0015717976493760943,-0.020388895645737648
1772454814744721200,8.61972119140625,-0.005067729391157627,-0.0023728765081614256,-0.02990303747355938
1772454814754739200,8.6297392578125,-0.0030423952266573906,-0.0014018879737704992,-0.03068574145436287
1772454814764757200,8.63975732421875,-0.005274390336126089,-0.004835767671465874,-0.03057175688445568
1772454814774775300,8.649775390625,-0.0052384380251169205,-0.004329234827309847,-0.024322915822267532
1772454814784793000,8.65979296875,0.0002085255109705031,-0.004597414750605822,-0.01399011816829443
1772454814794811100,8.66981103515625,-0.001535312389023602,-0.003784085623919964,-0.006652576383203268
1772454814804829400,8.679829345703125,0.0008620652370154858,0.0008761800127103925,-0.006636597216129303
1772454814814846200,8.68984619140625,-0.0013126720441505313,0.0049193911254405975,-0.015925437211990356
1772454814824864300,8.6998642578125,-0.0035867453552782536,0.006991330534219742,-0.02400360256433487
1772454814834882300,8.70988232421875,-0.004997155629098415,0.005595034919679165,-0.027405258268117905
1772454814844900000,8.719900146484376,-0.003073287894949317,0.0036756948102265596,-0.03196006268262863
1772454814854918100,8.729918212890626,-0.004766525700688362,0.0008277104352600873,-0.024951156228780746
1772454814864936400,8.7399365234375,-0.003817108692601323,0.004614192992448807,-0.014391455799341202
1772454814874953200,8.749953125,-0.006352704484015703,0.010743191465735435,-0.0029726203065365553
1772454814884971300,8.75997119140625,-0.008714661933481693,0.011620969511568546,0.012957610189914703
1772454814894989300,8.7699892578125,-0.0032623722217977047,0.015557654201984406,0.01786421798169613
1772454814905007400,8.78000732421875,-0.005677859298884869,0.01447055209428072,0.015910789370536804
1772454814915025200,8.790025146484375,-0.006167614832520485,0.01876756176352501,0.006454437039792538
1772454814925043500,8.80004345703125,-0.00881106872111559,0.015115835703909397,-0.0067423246800899506
1772454814935060200,8.810060302734374,-0.007428355049341917,0.008718922734260559,-0.019951870664954185
1772454814945078000,8.820078125,-0.008776979520916939,0.008615326136350632,-0.024704813957214355
1772454814955096300,8.830096435546874,-0.010823619551956654,0.012349876575171947,-0.026584206148982048
1772454814965114400,8.8401142578125,-0.012472115457057953,0.01489106472581625,-0.02388748899102211
1772454814975132200,8.850132080078126,-0.011477957479655743,0.018732674419879913,-0.026821760460734367
1772454814985150500,8.860150390625,-0.012691560201346874,0.0342293418943882,-0.024395886808633804
1772454814995167200,8.870167236328125,-0.00863370206207037,0.029707562178373337,-0.01912575773894787
1772454815005184800,8.880184814453125,-0.0067875985987484455,0.025502696633338928,-0.017227988690137863
1772454815015203000,8.890203125,-0.0007653924985788763,0.01890365034341812,-0.013250024989247322
1772454815025221000,8.90022119140625,0.00019387812062632293,0.01702159456908703,-0.010177535936236382
1772454815035239000,8.910239013671875,-0.0008833705214783549,0.011244132183492184,-0.009924535639584064
1772454815045256000,8.920255859375,0.0027270768769085407,0.013062538579106331,-0.020793162286281586
1772454815055274000,8.93027392578125,0.003997937310487032,0.01703251339495182,-0.02582014538347721
1772454815065291800,8.940291748046874,0.002350772265344858,0.013201556168496609,-0.028116056695580482
1772454815075310000,8.95031005859375,0.0012937636347487569,0.012763732112944126,-0.028053205460309982
1772454815085328100,8.960328125,0.0012660667998716235,0.016165120527148247,-0.027190076187253
1772454815095346000,8.970345947265624,-0.00000958738019107841,0.01630733348429203,-0.02100914530456066
1772454815105363000,8.980363037109376,0.0006615291931666434,0.014036457054316998,-0.017943313345313072
1772454815115381000,8.990381103515626,0.0008154599345289171,0.0075964005663990974,-0.01666819304227829
1772454815125399000,9.00039892578125,0.008598015643656254,-0.0062823970802128315,-0.018198711797595024
1772454815135417000,9.0104169921875,0.004631769843399525,-0.012782640755176544,-0.021332452073693275
1772454815145435100,9.02043505859375,0.005403287708759308,-0.006941529456526041,-0.024394555017352104
1772454815155453000,9.030452880859375,0.0028698223177343607,-0.0018604843644425273,-0.022960709407925606
1772454815165470000,9.040469970703125,0.0004114583716727793,0.006601177155971527,-0.014387194998562336
1772454815175488000,9.050488037109375,-0.002858903491869569,0.007957791909575462,-0.007155913859605789
1772454815185506000,9.060506103515625,0.00011238539445912465,0.004904743749648333,0.0014626081101596355
1772454815195524000,9.070524169921875,0.0009709885343909264,0.0034075146540999413,0.0068296766839921474
1772454815205542100,9.080542236328125,-0.00008468852320220321,0.0023558323737233877,0.008563661016523838
1772454815215560000,9.090559814453124,-0.00447038235142827,0.006144179031252861,0.016557937487959862
1772454815225578000,9.100577880859374,-0.00407410366460681,0.006554305553436279,0.010543987154960632
1772454815235595000,9.110594970703126,-0.0005310343112796545,0.013109143823385239,0.004840295296162367
1772454815245613000,9.120613037109376,-0.0010897654574364424,0.015931827947497368,-0.00017710021347738802
1772454815255630800,9.130630859375,-0.0011408982099965215,0.01672092266380787,-0.003306048223748803
1772454815265649200,9.140649169921875,-0.000603738590143621,0.007861118763685226,-0.0018628811230883002
1772454815275667000,9.1506669921875,-0.001900964416563511,0.006132727488875389,-0.0057130130007863045
1772454815285684200,9.160684326171875,-0.003245860803872347,0.01973535493016243,-0.007084008306264877
1772454815295702000,9.170701904296875,-0.0184682235121727,0.036136165261268616,-0.002965696156024933
1772454815305720000,9.180719970703125,-0.0284726545214653,0.04675472155213356,-0.003568103304132819
1772454815315737900,9.19073779296875,-0.020291423425078392,0.032337166368961334,0.006118080113083124
1772454815325756200,9.200756103515625,-0.015547268092632294,0.01805862970650196,0.01872148923575878
1772454815335774000,9.21077392578125,-0.022167086601257324,0.008986038155853748,0.026792198419570923
1772454815345791000,9.220791015625,-0.02099050208926201,0.0000798948312876746,0.02383156307041645
1772454815355809000,9.23080908203125,-0.01565193012356758,-0.007801463827490807,0.008918393403291702
1772454815365827000,9.2408271484375,-0.015725167468190193,-0.020811006426811218,0.0014397049089893699
1772454815375844900,9.250844970703126,-0.017524665221571922,-0.025133315473794937,-0.005480252671986818
1772454815385863200,9.26086328125,-0.017124392092227936,-0.019111908972263336,-0.016633572056889534
1772454815395881000,9.270880859375,-0.014749650843441486,-0.0039265644736588,-0.022943930700421333
1772454815405898000,9.28089794921875,-0.01552143506705761,0.0022130869328975677,-0.021856563165783882
1772454815415916000,9.290916015625,-0.015726765617728233,-0.005121524911373854,-0.019291406497359276
1772454815425934000,9.30093408203125,-0.010609767399728298,-0.011054514907300472,-0.009968478232622147
1772454815435951900,9.310951904296875,-0.012793825939297676,-0.017483118921518326,-0.003979295492172241
1772454815445970200,9.32097021484375,-0.011413775384426117,-0.024813471361994743,0.005394765175879002
1772454815455988000,9.330988037109375,-0.010293916799128056,-0.021938322111964226,0.011000187136232853
1772454815466006000,9.341006103515625,-0.010539992712438107,-0.017681259661912918,0.017236243933439255
1772454815476023000,9.35102294921875,-0.009486179798841476,-0.015797339379787445,0.019460516050457954
1772454815486041000,9.361041015625,-0.010959972627460957,-0.007485080510377884,0.02046665921807289
1772454815496059000,9.371058837890626,-0.0126982182264328,-0.004790494218468666,0.02057052217423916
1772454815506077000,9.381076904296876,-0.015224759466946125,-0.00705711031332612,0.017596038058400154
1772454815516095000,9.391094970703126,-0.013520335778594017,-0.015270565636456013,0.01654009521007538
1772454815526113000,9.401113037109376,-0.017359815537929535,-0.018013887107372284,0.017598168924450874
1772454815536130000,9.411130126953125,-0.017608022317290306,-0.012532569468021393,0.012065451592206955
1772454815546148000,9.421148193359375,-0.020110594108700752,-0.007044593803584576,0.0073540532030165195
1772454815556166000,9.431165771484375,-0.015602395869791508,-0.007111971732228994,0.006334062200039625
1772454815566184000,9.441183837890625,-0.014452176168560982,-0.011550129391252995,0.0059779975563287735
1772454815576202000,9.451201904296875,-0.012802347540855408,-0.015108113177120686,0.010417753830552101
1772454815586219000,9.461218994140625,-0.009575395844876766,-0.020498350262641907,0.012513394467532635
1772454815596237000,9.471237060546875,-0.007328220177441835,-0.018494056537747383,0.012076370418071747
1772454815606255000,9.481255126953124,-0.007833954878151417,-0.015568040311336517,0.010485131293535233
1772454815616273000,9.49127294921875,-0.010009490884840488,-0.009663812816143036,0.0025899240281432867
1772454815626291000,9.501291015625,-0.011890747584402561,0.00155262288171798,-0.006846454460173845
1772454815636309000,9.51130908203125,-0.013133378699421883,0.0075577846728265285,-0.008639827370643616
1772454815646327000,9.5213271484375,-0.009827597066760063,0.0016258598770946264,-0.006042978726327419
1772454815656344000,9.531343994140625,-0.005596899427473545,-0.001698830397799611,0.001050617080181837
1772454815666362000,9.541362060546875,-0.003186472225934267,-0.0031558459158986807,0.008371380157768726
1772454815676380000,9.5513798828125,-0.003326288191601634,-0.00032863407977856696,0.020480241626501083
1772454815686398000,9.56139794921875,-0.002983273006975651,0.003547064261510968,0.02214604802429676
1772454815696416000,9.571416015625,-0.0017233315156772733,0.002570483135059476,0.014626879245042801
1772454815706433000,9.58143310546875,-0.0018607506062835455,0.00022210762836039066,0.009135707281529903
1772454815716450800,9.591450927734375,0.001621332485228777,0.002558498876169324,-0.0011472897604107857
1772454815726469000,9.60146923828125,0.004478638060390949,-0.0024868599139153957,-0.001942243310622871
1772454815736487000,9.61148681640625,0.005520999431610107,-0.00475534051656723,0.001192829804494977
1772454815746505000,9.6215048828125,0.0033750240691006184,-0.013681457377970219,0.004963066894561052
1772454815756523000,9.63152294921875,0.0041249701753258705,-0.009702161885797977,0.015140336938202381
1772454815766540000,9.6415400390625,0.0009086705395020545,-0.005957757588475943,0.020140156149864197
1772454815776557800,9.651557861328126,-0.0006945523782633245,-0.006021673325449228,0.02299612946808338
1772454815786576100,9.661576171875,-0.0013877731980755925,-0.0032836776226758957,0.017464477568864822
1772454815796594000,9.671593994140625,0.0033776871860027313,-0.0014921691035851836,0.012004464864730835
1772454815806612000,9.681612060546875,0.0013819142477586865,0.0013763216556981206,0.005106611177325249
1772454815816629800,9.691629638671875,0.003418433479964733,0.00027510453946888447,0.00024447820032946765
1772454815826647000,9.70164697265625,0.007539941463619471,-0.0007872303831391037,-0.010092847980558872
1772454815836664800,9.711664794921875,0.009634784422814846,0.005016330163925886,-0.015489211305975914
1772454815846683100,9.72168310546875,0.007250988855957985,0.003421629313379526,-0.017729993909597397
1772454815856701000,9.731700927734375,0.0066650933586061,0.004564658273011446,-0.016914002597332
1772454815866719000,9.741718994140625,0.005782255437225103,-0.001091896090656519,-0.014591991901397705
1772454815876736800,9.75173681640625,-0.0017009610310196877,-0.004304733593016863,-0.011212707497179508
1772454815886754000,9.761754150390624,-0.0036573191173374653,0.0013480921043083072,-0.004291683901101351
1772454815896771800,9.771771728515626,-0.0013994910987094045,0.010969294235110283,-0.008012918755412102
1772454815906790100,9.7817900390625,0.004283428192138672,0.021411549299955368,-0.012595686130225658
1772454815916808000,9.791807861328126,0.0032314795535057783,0.030421022325754166,-0.0243170578032732
1772454815926826000,9.801825927734376,0.002531068166717887,0.022826485335826874,-0.039255525916814804
1772454815936844000,9.811843994140625,0.007732754573225975,0.009678726084530354,-0.061161357909440994
1772454815946861000,9.821861083984375,0.008989766240119934,-0.008293882943689823,-0.07575707882642746
1772454815956878800,9.83187890625,0.0019481023773550987,-0.019477294757962227,-0.06469564139842987
1772454815966897000,9.84189697265625,-0.0018807243322953582,-0.02142672799527645,-0.051359593868255615
1772454815976915000,9.8519150390625,0.001383778522722423,-0.017610153183341026,-0.026932282373309135
1772454815986933000,9.86193310546875,0.0037057886365801096,-0.0092347776517272,-0.004870655480772257
1772454815996950500,9.871950439453125,0.0018575548892840743,0.008099205791950226,0.014630341902375221
1772454816006967600,9.881967529296874,0.0016951019642874599,0.018315624445676804,0.027240941300988197
1772454816016985600,9.891985595703124,0.0013164004776626825,0.0187811441719532,0.026506176218390465
1772454816027003600,9.902003662109376,0.006470416206866503,0.012438027188181877,0.021995047107338905
1772454816037021700,9.912021728515626,0.005488774739205837,0.01104412879794836,0.014725683256983757
1772454816047039500,9.92203955078125,0.005310076754540205,0.004746019374579191,0.016110260039567947
1772454816057057500,9.9320576171875,0.008183361031115055,-0.0012117383303120732,0.019357185810804367
1772454816067074600,9.942074462890625,0.011080880649387836,-0.010039851069450378,0.013904097490012646
1772454816077092600,9.952092529296875,0.010408698581159115,-0.006015548016875982,0.010685134679079056
1772454816087110400,9.9621103515625,0.008669921196997166,-0.006968959700316191,0.004891428165137768
1772454816097128700,9.972128662109375,0.01022707112133503,-0.009681656025350094,0.004057592246681452
1772454816107146500,9.982146484375,0.009136239998042583,-0.005003546830266714,0.0025598304346203804
1772454816117164500,9.99216455078125,0.010824418626725674,-0.00672315014526248,0.002287921728566289
1772454816127181600,10.002181640625,0.005535380449146032,-0.0022210762836039066,-0.00012543488992378116
1772454816137199600,10.01219970703125,0.0011134676169604063,-0.0020748688839375973,-0.0054360441863536835
1772454816147217400,10.022217529296874,0.0016263924771919847,-0.0034786208998411894,-0.011788749136030674
1772454816157235700,10.032235595703124,-0.00024980452144518495,0.0009539442835375667,-0.01732279732823372
1772454816167253800,10.042253662109376,-0.0019654128700494766,0.0009488842915743589,-0.0129349734634161
1772454816177271600,10.052271484375,-0.006864297669380903,-0.004177967086434364,-0.009782589972019196
1772454816187288600,10.06228857421875,-0.007757255341857672,-0.010040650144219398,-0.00577772781252861
1772454816197306600,10.072306640625,-0.004515655804425478,-0.01715235598385334,0.0013025520602241158
1772454816207324400,10.082324462890625,-0.00307568465359509,-0.01726074516773224,0.00691995769739151
1772454816217342700,10.0923427734375,-0.0038714371621608734,-0.01581811159849167,0.004256263840943575
1772454816227360800,10.10236083984375,-0.00717508839443326,0.002231462625786662,0.003632285399362445
1772454816237378600,10.112378662109375,-0.004990497604012489,0.009766077622771263,0.004569185432046652
1772454816247395600,10.1223955078125,-0.0029878003988415003,0.009673399850726128,0.006331665441393852
1772454816257413600,10.13241357421875,-0.003939081449061632,0.00723500968888402,0.012149074114859104
1772454816267431700,10.142431640625,-0.004376106429845095,-0.001722798915579915,0.012720854952931404
1772454816277449700,10.15244970703125,-0.000630902883131057,-0.003576891729608178,0.0181659534573555
1772454816287467800,10.1624677734375,0.006755374372005463,0.000028229507734067738,0.020864535123109818
1772454816297485600,10.172485595703124,0.007208378054201603,-0.0005752427969127893,0.018918298184871674
1772454816307502600,10.182502685546876,0.006866960786283016,0.003707919269800186,0.019409917294979095
1772454816317520600,10.192520751953126,0.0070975907146930695,-0.0010998855577781796,0.014929681085050106
1772454816327538700,10.20253857421875,0.010361560620367527,-0.009253419004380703,0.010959174484014511
1772454816337556500,10.212556396484375,0.012892096303403378,-0.014267885126173496,-0.00034914040588773787
1772454816347574800,10.22257470703125,0.015840481966733932,-0.013426059857010841,-0.008465922437608242
1772454816357592600,10.232592529296875,0.021442973986268044,-0.00866406224668026,-0.012015650048851967
1772454816367609600,10.242609619140625,0.024342358112335205,-0.0065678879618644714,-0.007273092865943909
1772454816377627600,10.252627685546875,0.02327789179980755,-0.0015302523970603943,-0.001749164192005992
1772454816387645700,10.262645751953125,0.020497817546129227,0.004511395003646612,0.0013997574569657445
1772454816397663500,10.27266357421875,0.017768610268831253,0.005593170877546072,0.0018021611031144857
1772454816407681800,10.282681884765625,0.013503025285899639,0.002662362065166235,-0.0035300198942422867
1772454816417699600,10.292699462890624,0.008008125238120556,-0.001326786819845438,0.000020772657080669887
1772454816427716600,10.302716552734376,0.005921006202697754,-0.0010237190872430801,-0.006183593533933163
1772454816437734700,10.312734619140626,0.00577772781252861,0.005016862880438566,-0.00996315199881792
1772454816447752700,10.322752685546876,0.001764344167895615,0.020484767854213715,-0.008671518415212631
1772454816457770500,10.3327705078125,0.001927595934830606,0.022788669914007187,0.0011291803093627095
1772454816467788800,10.342788818359375,0.0029784792568534613,0.01966904290020466,0.008302670903503895
1772454816477806600,10.352806640625,-0.00038642468280158937,0.014676414430141449,0.017049556598067284
1772454816487823600,10.36282373046875,-0.0017885789275169373,0.009351690299808979,0.019784091040492058
1772454816497841700,10.372841552734375,0.0033981935121119022,0.009127984754741192,0.018972625955939293
1772454816507859700,10.382859619140625,0.0026871294248849154,0.009502158500254154,0.018221614882349968
1772454816517877500,10.39287744140625,-0.00016112125013023615,0.015277223661541939,0.011838017031550407
1772454816527895800,10.402895751953125,-0.0018724685069173574,0.016984043642878532,0.01200100313872099
1772454816537913600,10.41291357421875,-0.004969458561390638,0.014082795940339565,0.006867227144539356
1772454816547930600,10.4229306640625,-0.004434429574757814,-0.004421379882842302,-0.001668736687861383
1772454816557948700,10.43294873046875,-0.0002740392810665071,-0.018453575670719147,-0.010667557828128338
1772454816567966700,10.442966796875,-0.003908987622708082,-0.019040536135435104,-0.020853083580732346
1772454816577984500,10.452984619140626,-0.004777710884809494,-0.006385994143784046,-0.034090857952833176
1772454816588002600,10.46300244140625,-0.004890362732112408,0.00379021093249321,-0.03296487405896187
1772454816598020600,10.4730205078125,-0.0027244137600064278,0.012111790478229523,-0.024815866723656654
1772454816608037600,10.48303759765625,-0.000850879936479032,0.014479872770607471,-0.023190805688500404
1772454816618055700,10.4930556640625,-0.0019318570848554373,0.011481952853500843,-0.01781335100531578
1772454816628073700,10.50307373046875,-0.001609081868082285,-0.00010892329009948298,-0.01008166279643774
1772454816638091500,10.513091552734375,-0.002808036981150508,-0.006618754006922245,-0.0057348511181771755
1772454816648109600,10.523109619140625,-0.001942776027135551,-0.008404137566685677,-0.005363872740417719
1772454816658127600,10.533127685546875,-0.0033744913525879383,-0.006792392116039991,-0.006069610361009836
1772454816668144600,10.54314453125,-0.004314853344112635,-0.003288471372798085,-0.0002495381922926754
1772454816678162700,10.55316259765625,-0.004195011220872402,0.004728442523628473,0.014753646217286587
1772454816688180700,10.5631806640625,-0.004126301966607571,0.0091170659288764,0.0268904697149992
1772454816698198500,10.573198486328126,-0.005019792355597019,0.006901848129928112,0.028855616226792336
1772454816708216600,10.583216552734376,-0.0028818065766245127,0.015079616568982601,0.016744624823331833
1772454816718234600,10.593234619140626,-0.0020567593164741993,0.02809182181954384,-0.00040480049210600555
1772454816728251600,10.603251708984375,-0.006427273154258728,0.029316876083612442,-0.011774101294577122
1772454816738269400,10.61326953125,-0.012018846347928047,0.01571531407535076,-0.020196614786982536
1772454816748287700,10.623287841796875,0.0008780442294664681,0.019113773480057716,-0.021350828930735588
1772454816758305500,10.633305419921875,0.0057103498838841915,0.03761421889066696,-0.013668674044311047
1772454816768323600,10.643323486328125,-0.00045593318645842373,0.03418327122926712,-0.0014436995843425393
1772454816778340600,10.653340576171875,-0.0018825886072590947,0.0054906392470002174,0.013859623111784458
1772454816788358700,10.663358642578125,0.006547914352267981,0.019328691065311432,0.01606232300400734
1772454816798376400,10.67337646484375,0.00261841993778944,0.02767184190452099,0.012397280894219875
1772454816808394800,10.683394775390624,-0.029215410351753235,0.011463044211268425,0.05086744204163551
1772454816818412500,10.69341259765625,-0.030296919867396355,-0.04761545732617378,0.05403207615017891
1772454816828430600,10.7034306640625,0.010831075720489025,-0.04856300726532936,0.04688335210084915
1772454816838447600,10.713447509765626,0.012596751563251019,-0.023726101964712143,0.041496578603982925
1772454816848465700,10.723465576171876,-0.007982026785612106,-0.022340726107358932,0.02575143612921238
1772454816858483500,10.7334833984375,-0.004929777234792709,0.0019744676537811756,-0.010812699794769287
1772454816868501800,10.743501708984375,0.006053631659597158,0.019669309258461,-0.05889500677585602
1772454816878519600,10.75351953125,0.01179487444460392,0.04568706080317497,-0.09521520137786865
1772454816888537600,10.76353759765625,0.006375074852257967,0.042806319892406464,-0.09576167911291122
1772454816898554600,10.7735546875,-0.018611768260598183,0.03062981367111206,-0.051173172891139984
1772454816908572700,10.78357275390625,-0.026252908632159233,-0.023013174533843994,0.007958058267831802
