time,seconds_elapsed,z,y,x
1772457080662209000,0.067208984375,-1.06103515625,0.03900146484375,0.0133514404296875
1772457080672227800,0.077227783203125,-0.982391357421875,0.019073486328125,0.01171875
1772457080682246000,0.087245849609375,-0.9490966796875,0.009124755859375,0.0135650634765625
1772457080692265000,0.097264892578125,-1.0059661865234375,0.025634765625,0.012664794921875
1772457080702283000,0.107282958984375,-1.02764892578125,0.032501220703125,0.0133056640625
1772457080712302000,0.117302001953125,-0.9876708984375,0.02117919921875,0.0133209228515625
1772457080722320000,0.12731982421875,-0.972198486328125,0.0167388916015625,0.013519287109375
1772457080732339000,0.1373388671875,-1.002105712890625,0.02398681640625,0.01434326171875
1772457080742356500,0.1473564453125,-1.01348876953125,0.0261383056640625,0.0119781494140625
1772457080752375600,0.15737548828125,-0.990325927734375,0.0198822021484375,0.0124969482421875
1772457080762393600,0.1673935546875,-0.9834442138671875,0.0218658447265625,0.0128173828125
1772457080772412400,0.177412353515625,-1.0025634765625,0.0275115966796875,0.012603759765625
1772457080782430700,0.1874306640625,-1.00421142578125,0.0261688232421875,0.0131988525390625
1772457080792449500,0.197449462890625,-0.9878997802734375,0.0221405029296875,0.0109710693359375
1772457080802467600,0.207467529296875,-0.9897003173828125,0.021697998046875,0.0137939453125
1772457080812486700,0.217486572265625,-1.00048828125,0.024169921875,0.012786865234375
1772457080822504400,0.22750439453125,-1.00067138671875,0.0240631103515625,0.0127716064453125
1772457080832523500,0.2375234375,-0.992462158203125,0.0223388671875,0.0144195556640625
1772457080842541600,0.24754150390625,-0.995697021484375,0.0220794677734375,0.014129638671875
1772457080852560600,0.257560546875,-0.995025634765625,0.022979736328125,0.013671875
1772457080862578700,0.26757861328125,-0.9949798583984375,0.0223388671875,0.0107574462890625
1772457080872597500,0.277597412109375,-0.99462890625,0.021881103515625,0.0145111083984375
1772457080882615600,0.287615478515625,-0.992950439453125,0.0245819091796875,0.014892578125
1772457080892634600,0.297634521484375,-0.9969635009765625,0.023406982421875,0.012786865234375
1772457080902652400,0.30765234375,-0.9987030029296875,0.022552490234375,0.012115478515625
1772457080912671500,0.31767138671875,-0.9919586181640625,0.0216522216796875,0.0137481689453125
1772457080922689800,0.327689697265625,-0.992095947265625,0.0216217041015625,0.013092041015625
1772457080932708600,0.33770849609375,-0.9978179931640625,0.02337646484375,0.0123443603515625
1772457080942726700,0.3477265625,-0.9959259033203125,0.025238037109375,0.01239013671875
1772457080952745700,0.357745849609375,-0.9930419921875,0.02349853515625,0.013397216796875
1772457080962763500,0.367763427734375,-0.9951934814453125,0.02325439453125,0.013427734375
1772457080972782600,0.377782470703125,-0.9970245361328125,0.0229034423828125,0.013641357421875
1772457080982800400,0.38780029296875,-0.99627685546875,0.021209716796875,0.0124053955078125
1772457080992819500,0.3978193359375,-0.9957427978515625,0.022308349609375,0.011016845703125
1772457081002837800,0.407837646484375,-0.9970245361328125,0.0240936279296875,0.0130767822265625
1772457081012856600,0.417856689453125,-0.99591064453125,0.0238037109375,0.0122528076171875
1772457081022874600,0.42787451171875,-0.995758056640625,0.0237579345703125,0.0141448974609375
1772457081032893700,0.437893798828125,-0.993927001953125,0.0227508544921875,0.0173492431640625
1772457081042911500,0.447911376953125,-0.9936065673828125,0.0240478515625,0.0135650634765625
1772457081052930600,0.4579306640625,-0.9962310791015625,0.02374267578125,0.011932373046875
1772457081062949600,0.46794970703125,-0.996124267578125,0.0222015380859375,0.013641357421875
1772457081072967400,0.477967529296875,-0.9957122802734375,0.02166748046875,0.0142364501953125
1772457081082985700,0.48798583984375,-0.995086669921875,0.0230865478515625,0.0129241943359375
1772457081093004500,0.498004638671875,-0.995330810546875,0.0218353271484375,0.0121917724609375
1772457081103022600,0.508022705078125,-0.99493408203125,0.0223388671875,0.0118865966796875
1772457081113041700,0.518041748046875,-0.9958038330078125,0.022613525390625,0.0135650634765625
1772457081123059500,0.5280595703125,-0.9951629638671875,0.02362060546875,0.013702392578125
1772457081133078500,0.53807861328125,-0.995391845703125,0.0220184326171875,0.0126190185546875
1772457081143096300,0.548096435546875,-0.9951171875,0.02166748046875,0.01416015625
1772457081153115400,0.558115478515625,-0.994476318359375,0.022705078125,0.0143280029296875
1772457081163134500,0.568134521484375,-0.9970550537109375,0.0225067138671875,0.0116729736328125
1772457081173152500,0.578152587890625,-0.9957427978515625,0.0211181640625,0.011688232421875
1772457081183171600,0.588171630859375,-0.9959564208984375,0.023773193359375,0.014007568359375
1772457081193189600,0.598189697265625,-0.994598388671875,0.0224456787109375,0.012939453125
1772457081203208400,0.60820849609375,-0.994659423828125,0.0227203369140625,0.011810302734375
1772457081213226500,0.6182265625,-0.9959869384765625,0.0221099853515625,0.013580322265625
1772457081223245600,0.62824560546875,-0.9952850341796875,0.0233917236328125,0.0139007568359375
1772457081233263600,0.638263671875,-0.996734619140625,0.02294921875,0.012054443359375
1772457081243282400,0.648282470703125,-0.996337890625,0.0235748291015625,0.0130157470703125
1772457081253300700,0.65830078125,-0.995819091796875,0.024627685546875,0.012298583984375
1772457081263319600,0.668319580078125,-0.9949798583984375,0.0237579345703125,0.0130767822265625
1772457081273337600,0.678337646484375,-0.9950408935546875,0.0227203369140625,0.0133209228515625
1772457081283356700,0.688356689453125,-0.9957122802734375,0.0247039794921875,0.012054443359375
1772457081293374500,0.69837451171875,-0.9959564208984375,0.0253753662109375,0.013763427734375
1772457081303393500,0.7083935546875,-0.994720458984375,0.024322509765625,0.0137481689453125
1772457081313411600,0.71841162109375,-0.9978790283203125,0.0222930908203125,0.0132598876953125
1772457081323430700,0.7284306640625,-0.9953765869140625,0.021575927734375,0.012847900390625
1772457081333448700,0.73844873046875,-0.9954986572265625,0.021148681640625,0.014404296875
1772457081343467500,0.748467529296875,-0.996002197265625,0.0204620361328125,0.0137939453125
1772457081353485600,0.758485595703125,-0.9952392578125,0.023223876953125,0.012603759765625
1772457081363504600,0.768504638671875,-0.9953155517578125,0.0257415771484375,0.01324462890625
1772457081373522400,0.7785224609375,-0.9956207275390625,0.0234222412109375,0.0133056640625
1772457081383541500,0.78854150390625,-0.991302490234375,0.023956298828125,0.014312744140625
1772457081393559600,0.7985595703125,-0.9952850341796875,0.0220184326171875,0.0114288330078125
1772457081403578600,0.80857861328125,-0.9967498779296875,0.0218963623046875,0.0123138427734375
1772457081413596700,0.8185966796875,-0.99505615234375,0.021942138671875,0.0135498046875
1772457081423615500,0.828615478515625,-0.998443603515625,0.022064208984375,0.013275146484375
1772457081433633500,0.838633544921875,-0.998382568359375,0.0226593017578125,0.0123291015625
1772457081443652600,0.848652587890625,-0.991302490234375,0.024871826171875,0.0126190185546875
1772457081453670400,0.85867041015625,-0.9945220947265625,0.0233001708984375,0.013763427734375
1772457081463689500,0.868689453125,-0.9960479736328125,0.0250396728515625,0.014404296875
1772457081473707800,0.878707763671875,-0.995758056640625,0.0236968994140625,0.0117034912109375
1772457081483726600,0.8887265625,-0.99737548828125,0.0237274169921875,0.011993408203125
1772457081493744600,0.89874462890625,-0.9976348876953125,0.0204315185546875,0.01409912109375
1772457081503763700,0.908763671875,-0.9948272705078125,0.0202178955078125,0.01312255859375
1772457081513781500,0.918781494140625,-0.9951019287109375,0.0214080810546875,0.0120849609375
1772457081523800600,0.928800537109375,-0.9968109130859375,0.02276611328125,0.0134124755859375
1772457081533818400,0.938818359375,-0.9949951171875,0.025238037109375,0.013916015625
1772457081543837400,0.94883740234375,-0.994537353515625,0.027099609375,0.011932373046875
1772457081553855700,0.958855712890625,-0.9964752197265625,0.02374267578125,0.0121612548828125
1772457081563874600,0.96887451171875,-0.9949188232421875,0.0212554931640625,0.01202392578125
1772457081573892600,0.978892578125,-0.9965972900390625,0.02081298828125,0.01361083984375
1772457081583911700,0.98891162109375,-0.9974517822265625,0.0208282470703125,0.0124053955078125
1772457081593929500,0.998929443359375,-0.997894287109375,0.0211334228515625,0.0122222900390625
1772457081603948500,1.008948486328125,-0.995452880859375,0.0233917236328125,0.013275146484375
1772457081613966600,1.018966552734375,-0.9956207275390625,0.024169921875,0.012176513671875
1772457081623985400,1.0289853515625,-0.9938812255859375,0.0233306884765625,0.0112457275390625
1772457081634003700,1.039003662109375,-0.9951019287109375,0.02325439453125,0.0130767822265625
1772457081644022500,1.0490224609375,-0.996978759765625,0.0227508544921875,0.0129547119140625
1772457081654040600,1.05904052734375,-0.9955291748046875,0.0229339599609375,0.0126190185546875
1772457081664059600,1.0690595703125,-0.996978759765625,0.021820068359375,0.012542724609375
1772457081674077400,1.079077392578125,-0.996185302734375,0.021209716796875,0.013275146484375
1772457081684096500,1.089096435546875,-0.9943389892578125,0.02154541015625,0.012054443359375
1772457081694114600,1.099114501953125,-0.9932708740234375,0.0240631103515625,0.0133819580078125
1772457081704133600,1.109133544921875,-1.0097808837890625,0.0288543701171875,0.0166778564453125
1772457081714151700,1.119151611328125,-0.9898681640625,0.020751953125,0.0130767822265625
1772457081724170500,1.12917041015625,-0.9734954833984375,0.01763916015625,0.0120086669921875
1772457081734188500,1.1391884765625,-1.0017852783203125,0.0243682861328125,0.013458251953125
1772457081744208100,1.1492080078125,-1.0157470703125,0.024139404296875,0.014404296875
1772457081754226000,1.159225830078125,-0.9868011474609375,0.0137786865234375,0.013671875
1772457081764245000,1.169244873046875,-0.9755096435546875,0.015045166015625,0.0128173828125
1772457081774263000,1.179262939453125,-1.0090484619140625,0.026275634765625,0.01348876953125
1772457081784281900,1.18928173828125,-1.013153076171875,0.03009033203125,0.0132293701171875
1772457081794300200,1.199300048828125,-0.9786376953125,0.02349853515625,0.0126953125
1772457081804319200,1.2093193359375,-0.9833221435546875,0.0220947265625,0.012939453125
1772457081814337000,1.2193369140625,-1.007568359375,0.0240325927734375,0.0143280029296875
1772457081824356000,1.229356201171875,-1.00189208984375,0.01922607421875,0.0132904052734375
1772457081834374000,1.239373779296875,-0.9863433837890625,0.0170440673828125,0.012115478515625
1772457081844393000,1.24939306640625,-0.9943084716796875,0.020416259765625,0.01385498046875
1772457081854411000,1.259410888671875,-1.0025177001953125,0.02490234375,0.013031005859375
1772457081864429800,1.269429931640625,-0.996185302734375,0.027191162109375,0.0106964111328125
1772457081874448100,1.2794482421875,-0.9892730712890625,0.024261474609375,0.0115509033203125
1772457081884467200,1.28946728515625,-0.991180419921875,0.0233917236328125,0.0150146484375
1772457081894485000,1.299485107421875,-0.9984588623046875,0.022735595703125,0.011810302734375
1772457081904504000,1.309504150390625,-0.997283935546875,0.021636962890625,0.011383056640625
1772457081914522000,1.319522216796875,-0.9959716796875,0.020538330078125,0.0139312744140625
1772457081924541000,1.329541015625,-0.99713134765625,0.0207672119140625,0.015106201171875
1772457081934559200,1.339559326171875,-0.999420166015625,0.0225982666015625,0.0117950439453125
1772457081944578000,1.349578125,-0.9950103759765625,0.023406982421875,0.0115203857421875
1772457081954596000,1.35959619140625,-0.990570068359375,0.0247802734375,0.0137786865234375
1772457081964615200,1.369615234375,-0.994964599609375,0.026702880859375,0.0138092041015625
1772457081974633000,1.379633056640625,-0.9982757568359375,0.0243072509765625,0.0117340087890625
1772457081984652000,1.389652099609375,-0.996734619140625,0.0212249755859375,0.012908935546875
1772457081994670000,1.399670166015625,-0.9976348876953125,0.019744873046875,0.0139617919921875
1772457082004689000,1.40968896484375,-0.9972381591796875,0.0200347900390625,0.013153076171875
1772457082014707200,1.419707275390625,-0.99798583984375,0.021270751953125,0.011627197265625
1772457082024726300,1.429726318359375,-0.9950714111328125,0.0228424072265625,0.0126190185546875
1772457082034744000,1.439744140625,-0.992340087890625,0.024871826171875,0.014251708984375
1772457082044763100,1.44976318359375,-0.9946441650390625,0.02618408203125,0.0134124755859375
1772457082054781000,1.459781005859375,-0.9957427978515625,0.0247039794921875,0.012176513671875
1772457082064800000,1.469800048828125,-0.993927001953125,0.0214996337890625,0.0139007568359375
1772457082074818000,1.479818115234375,-0.99505615234375,0.02056884765625,0.0151214599609375
1772457082084836000,1.489836181640625,-0.999114990234375,0.020050048828125,0.0113983154296875
1772457082094855200,1.499855224609375,-0.9986419677734375,0.0194091796875,0.0146942138671875
1772457082104873000,1.509873046875,-0.9961090087890625,0.02117919921875,0.013702392578125
1772457082114892000,1.51989208984375,-0.9931793212890625,0.0232696533203125,0.0121917724609375
1772457082124910000,1.52991015625,-0.9951019287109375,0.0242462158203125,0.013580322265625
1772457082134929000,1.539928955078125,-0.9944610595703125,0.0242156982421875,0.0127716064453125
1772457082144947000,1.549947021484375,-0.9948883056640625,0.0230560302734375,0.01202392578125
1772457082154966000,1.559966064453125,-0.99725341796875,0.02301025390625,0.01495361328125
1772457082164984000,1.569984130859375,-0.9963836669921875,0.0214385986328125,0.013092041015625
1772457082175003100,1.580003173828125,-0.9956512451171875,0.020294189453125,0.013916015625
1772457082185021200,1.590021240234375,-0.99462890625,0.0200958251953125,0.01434326171875
1772457082195040000,1.6000400390625,-0.993621826171875,0.022186279296875,0.011627197265625
1772457082205058000,1.61005810546875,-0.9911651611328125,0.027587890625,0.0110321044921875
1772457082215077000,1.6200771484375,-1.02410888671875,0.032440185546875,0.0158233642578125
1772457082225095000,1.630094970703125,-0.9775238037109375,0.01776123046875,0.0136260986328125
1772457082235114000,1.640114013671875,-0.9575042724609375,0.0098419189453125,0.010711669921875
1772457082245132000,1.650132080078125,-1.0140228271484375,0.0267181396484375,0.0121002197265625
1772457082255151000,1.660151123046875,-1.028778076171875,0.024932861328125,0.0127105712890625
1772457082265169200,1.670169189453125,-0.98406982421875,0.0140533447265625,0.0134429931640625
1772457082275188000,1.68018798828125,-0.9775390625,0.0217742919921875,0.0121307373046875
1772457082285206000,1.6902060546875,-1.007537841796875,0.03009033203125,0.013824462890625
1772457082295225000,1.70022509765625,-1.0050048828125,0.030731201171875,0.01531982421875
1772457082305243100,1.7102431640625,-0.9826507568359375,0.02520751953125,0.0128326416015625
1772457082315262000,1.720261962890625,-0.991912841796875,0.021392822265625,0.0126190185546875
1772457082325280000,1.730280029296875,-1.0062713623046875,0.0204010009765625,0.011871337890625
1772457082335299000,1.740299072265625,-0.99554443359375,0.01885986328125,0.013092041015625
1772457082345317000,1.750317138671875,-0.9907684326171875,0.0190887451171875,0.0124359130859375
1772457082355336000,1.7603359375,-1.0006103515625,0.0262908935546875,0.010986328125
1772457082365354000,1.77035400390625,-0.99688720703125,0.027618408203125,0.0150299072265625
1772457082375373000,1.780373046875,-0.9918060302734375,0.0275726318359375,0.012847900390625
1772457082385391000,1.79039111328125,-0.991241455078125,0.023193359375,0.012908935546875
1772457082395410200,1.80041015625,-0.992034912109375,0.0229034423828125,0.013092041015625
1772457082405428200,1.81042822265625,-0.9976806640625,0.02197265625,0.011627197265625
1772457082415447000,1.820447021484375,-1.0010986328125,0.020965576171875,0.012969970703125
1772457082425465000,1.830465087890625,-0.996124267578125,0.01953125,0.0129547119140625
1772457082435484200,1.840484130859375,-0.9958648681640625,0.0206756591796875,0.014404296875
1772457082445502000,1.850501953125,-0.9948272705078125,0.022735595703125,0.0142364501953125
1772457082455521000,1.86052099609375,-0.9926605224609375,0.024383544921875,0.0138702392578125
1772457082465539000,1.8705390625,-0.9899139404296875,0.026519775390625,0.011688232421875
1772457082475558100,1.88055810546875,-0.995849609375,0.0269012451171875,0.0128631591796875
1772457082485576200,1.890576171875,-0.9980010986328125,0.0233154296875,0.0125579833984375
1772457082495595000,1.900594970703125,-0.9935760498046875,0.0187835693359375,0.01336669921875
1772457082505613000,1.910613037109375,-0.996612548828125,0.01812744140625,0.01318359375
1772457082515632000,1.920632080078125,-0.99737548828125,0.0198822021484375,0.0142974853515625
1772457082525650000,1.93064990234375,-0.995330810546875,0.0242919921875,0.01458740234375
1772457082535669000,1.9406689453125,-0.996917724609375,0.025848388671875,0.013916015625
1772457082545687000,1.95068701171875,-0.9951171875,0.02764892578125,0.01214599609375
1772457082555706000,1.9607060546875,-0.993804931640625,0.0255126953125,0.012359619140625
1772457082565724200,1.97072412109375,-0.9946746826171875,0.0216827392578125,0.0113067626953125
1772457082575743000,1.980742919921875,-0.99615478515625,0.01959228515625,0.011962890625
1772457082585761000,1.990760986328125,-0.9958953857421875,0.0201568603515625,0.01275634765625
1772457082595780000,2.000780029296875,-0.9979248046875,0.022430419921875,0.014923095703125
1772457082605798000,2.0107978515625,-0.9975128173828125,0.02142333984375,0.0143890380859375
1772457082615817000,2.02081689453125,-0.9930877685546875,0.02325439453125,0.0119476318359375
1772457082625835000,2.0308349609375,-0.992156982421875,0.0240631103515625,0.0139617919921875
1772457082635854000,2.04085400390625,-0.9946136474609375,0.02520751953125,0.0140228271484375
1772457082645872000,2.0508720703125,-0.9941253662109375,0.02490234375,0.0134429931640625
1772457082655891000,2.060890869140625,-0.9964141845703125,0.02313232421875,0.013916015625
1772457082665909000,2.070908935546875,-0.99810791015625,0.0212249755859375,0.0142974853515625
1772457082675928000,2.080927978515625,-0.998748779296875,0.0198516845703125,0.0119476318359375
1772457082685946000,2.090946044921875,-0.9952545166015625,0.0205230712890625,0.0120391845703125
1772457082695965000,2.10096484375,-0.9939117431640625,0.0226287841796875,0.0138397216796875
1772457082705983200,2.110983154296875,-0.9938507080078125,0.0257110595703125,0.016021728515625
1772457082716002000,2.121001953125,-0.992919921875,0.0272979736328125,0.013031005859375
1772457082726020000,2.13102001953125,-0.996307373046875,0.0249481201171875,0.012664794921875
1772457082736039200,2.1410390625,-0.9964752197265625,0.0222320556640625,0.0134735107421875
1772457082746056400,2.151056396484375,-0.9965362548828125,0.020172119140625,0.0128173828125
1772457082756075500,2.161075439453125,-0.9967498779296875,0.0204010009765625,0.01177978515625
1772457082766093600,2.171093505859375,-0.9982147216796875,0.021026611328125,0.0114593505859375
1772457082776112600,2.181112548828125,-0.996429443359375,0.0216522216796875,0.0125732421875
1772457082786130700,2.191130615234375,-0.9951171875,0.0248870849609375,0.0131683349609375
1772457082796149500,2.2011494140625,-0.994232177734375,0.0246429443359375,0.012451171875
1772457082806167600,2.21116748046875,-0.9926605224609375,0.0234832763671875,0.0133209228515625
1772457082816186600,2.2211865234375,-0.9934539794921875,0.02349853515625,0.0143280029296875
1772457082826204400,2.231204345703125,-0.996124267578125,0.02276611328125,0.012542724609375
1772457082836222700,2.24122265625,-0.99609375,0.02130126953125,0.015106201171875
1772457082846241500,2.251241455078125,-0.9986114501953125,0.020599365234375,0.0140228271484375
1772457082856259600,2.261259521484375,-0.9959869384765625,0.02142333984375,0.0140228271484375
1772457082866278700,2.271278564453125,-0.9941253662109375,0.02288818359375,0.0123748779296875
1772457082876296400,2.28129638671875,-0.99285888671875,0.0255889892578125,0.01275634765625
1772457082886315500,2.2913154296875,-0.9966888427734375,0.02838134765625,0.0127410888671875
1772457082896333600,2.30133349609375,-1.00653076171875,0.0270233154296875,0.014007568359375
1772457082906352600,2.3113525390625,-0.9792938232421875,0.016998291015625,0.012054443359375
1772457082916370700,2.32137060546875,-0.9882659912109375,0.0181121826171875,0.0114593505859375
1772457082926389500,2.331389404296875,-1.0093536376953125,0.023101806640625,0.011749267578125
1772457082936407600,2.341407470703125,-1.00091552734375,0.020233154296875,0.01300048828125
1772457082946426600,2.351426513671875,-0.9837799072265625,0.0186309814453125,0.01422119140625
1772457082956444400,2.3614443359375,-0.9991912841796875,0.02691650390625,0.0140838623046875
1772457082966463500,2.37146337890625,-1.0039825439453125,0.0282745361328125,0.013275146484375
1772457082976481800,2.381481689453125,-0.9895477294921875,0.0238037109375,0.0136566162109375
1772457082986500600,2.39150048828125,-0.98681640625,0.0220947265625,0.012725830078125
1772457082996518700,2.4015185546875,-1.00469970703125,0.021575927734375,0.012542724609375
1772457083006537700,2.411537841796875,-1.0022125244140625,0.01983642578125,0.0114288330078125
1772457083016555500,2.421555419921875,-0.992645263671875,0.01861572265625,0.0116119384765625
1772457083026574600,2.43157470703125,-0.993682861328125,0.0211181640625,0.012908935546875
1772457083036592400,2.44159228515625,-0.9992523193359375,0.025146484375,0.011138916015625
1772457083046611500,2.451611572265625,-0.993621826171875,0.0265655517578125,0.01129150390625
1772457083056629800,2.461629638671875,-0.9915313720703125,0.0249481201171875,0.0155792236328125
1772457083066648600,2.471648681640625,-0.9945526123046875,0.0245361328125,0.0137176513671875
1772457083076666600,2.48166650390625,-0.996246337890625,0.0238037109375,0.0115203857421875
1772457083086685700,2.491685791015625,-0.99676513671875,0.019866943359375,0.011077880859375
1772457083096703500,2.501703369140625,-0.9974365234375,0.018524169921875,0.0139007568359375
1772457083106722600,2.51172265625,-0.99542236328125,0.0204010009765625,0.0141448974609375
1772457083116740400,2.521740234375,-0.996673583984375,0.023773193359375,0.013671875
1772457083126759400,2.531759521484375,-0.99591064453125,0.0249176025390625,0.0118865966796875
1772457083136777700,2.54177783203125,-0.9928436279296875,0.02557373046875,0.0132904052734375
1772457083146796500,2.551796630859375,-0.9927978515625,0.0250244140625,0.013641357421875
1772457083156814600,2.561814697265625,-0.996856689453125,0.02239990234375,0.012298583984375
1772457083166833700,2.571833740234375,-0.998382568359375,0.021728515625,0.01153564453125
1772457083176851500,2.5818515625,-0.995819091796875,0.018707275390625,0.0141143798828125
1772457083186870500,2.59187060546875,-0.996734619140625,0.0201568603515625,0.0125274658203125
1772457083196888300,2.601888427734375,-0.9969482421875,0.0228271484375,0.011138916015625
1772457083206907400,2.611907470703125,-0.99334716796875,0.024017333984375,0.01141357421875
1772457083216925700,2.62192578125,-0.9939727783203125,0.0250091552734375,0.0121917724609375
1772457083226944500,2.631944580078125,-0.994049072265625,0.026092529296875,0.0132293701171875
1772457083236962600,2.641962646484375,-0.993927001953125,0.0243072509765625,0.0106201171875
1772457083246981600,2.651981689453125,-0.99639892578125,0.021240234375,0.0130767822265625
1772457083256999400,2.66199951171875,-0.9965972900390625,0.0194854736328125,0.0127410888671875
1772457083267018500,2.6720185546875,-0.9965362548828125,0.01971435546875,0.0125579833984375
1772457083277036500,2.68203662109375,-0.9950714111328125,0.0222625732421875,0.015594482421875
1772457083287055600,2.6920556640625,-0.995391845703125,0.02447509765625,0.0145721435546875
1772457083297073700,2.70207373046875,-0.9967193603515625,0.0248260498046875,0.0121002197265625
1772457083307092700,2.7120927734375,-0.994171142578125,0.0249481201171875,0.0118255615234375
1772457083317110500,2.722110595703125,-0.99591064453125,0.024078369140625,0.0137481689453125
1772457083327128600,2.732128662109375,-0.9947662353515625,0.0218505859375,0.0146484375
1772457083337147400,2.7421474609375,-0.9952392578125,0.0206756591796875,0.01373291015625
1772457083347165700,2.752165771484375,-0.9968414306640625,0.0214385986328125,0.0129547119140625
1772457083357184800,2.762184814453125,-0.9946746826171875,0.02081298828125,0.0138397216796875
1772457083367202600,2.77220263671875,-0.9962921142578125,0.0223388671875,0.012481689453125
1772457083377221600,2.7822216796875,-0.99444580078125,0.0233001708984375,0.0125274658203125
1772457083387239400,2.792239501953125,-0.994781494140625,0.0249176025390625,0.0119476318359375
1772457083397258500,2.802258544921875,-0.9960784912109375,0.0256500244140625,0.0142974853515625
1772457083407276500,2.812276611328125,-0.9958038330078125,0.0236358642578125,0.0125885009765625
1772457083417295400,2.82229541015625,-0.9969940185546875,0.0211639404296875,0.01361083984375
1772457083427313700,2.832313720703125,-0.9964599609375,0.0207672119140625,0.0142669677734375
1772457083437332700,2.842332763671875,-0.995147705078125,0.0204010009765625,0.014251708984375
1772457083447350500,2.8523505859375,-0.995452880859375,0.0235748291015625,0.010833740234375
1772457083457369600,2.86236962890625,-0.994293212890625,0.024932861328125,0.0135345458984375
1772457083467387600,2.8723876953125,-0.993316650390625,0.025665283203125,0.0153656005859375
1772457083477406500,2.882406494140625,-0.993988037109375,0.0249786376953125,0.013336181640625
1772457083487424500,2.892424560546875,-0.9952239990234375,0.02301025390625,0.011474609375
1772457083497443600,2.902443603515625,-0.995697021484375,0.0219573974609375,0.01373291015625
1772457083507461600,2.912461669921875,-0.9966888427734375,0.0215606689453125,0.0137939453125
1772457083517480700,2.922480712890625,-0.9966583251953125,0.0202178955078125,0.011688232421875
1772457083527498500,2.93249853515625,-0.9949493408203125,0.0208740234375,0.012542724609375
1772457083537517600,2.942517578125,-0.9939117431640625,0.0230560302734375,0.0122222900390625
1772457083547535600,2.95253564453125,-0.9954986572265625,0.0226898193359375,0.0132293701171875
1772457083557554400,2.962554443359375,-0.9960174560546875,0.0240020751953125,0.012542724609375
1772457083567572500,2.972572509765625,-0.99566650390625,0.02508544921875,0.011199951171875
1772457083577591600,2.982591552734375,-0.995330810546875,0.022674560546875,0.013153076171875
1772457083587609600,2.992609619140625,-0.9956512451171875,0.02215576171875,0.01385498046875
1772457083597628700,3.002628662109375,-0.9980621337890625,0.02032470703125,0.0125579833984375
1772457083607646500,3.012646484375,-0.99761962890625,0.0200958251953125,0.0131072998046875
1772457083617665500,3.02266552734375,-0.9943389892578125,0.023651123046875,0.01324462890625
1772457083627683600,3.03268359375,-0.99578857421875,0.0237884521484375,0.0141448974609375
1772457083637702400,3.042702392578125,-0.9944610595703125,0.0228271484375,0.0131988525390625
1772457083647720400,3.052720458984375,-0.99322509765625,0.0222015380859375,0.014007568359375
1772457083657739500,3.062739501953125,-0.99542236328125,0.0240325927734375,0.0126190185546875
1772457083667757600,3.072757568359375,-0.9956207275390625,0.02264404296875,0.0113525390625
1772457083677776600,3.082776611328125,-0.9969329833984375,0.021514892578125,0.0107879638671875
1772457083687794400,3.09279443359375,-0.9956512451171875,0.0213775634765625,0.012786865234375
1772457083697812500,3.1028125,-0.99554443359375,0.02288818359375,0.0142059326171875
1772457083707831600,3.11283154296875,-0.994384765625,0.0223388671875,0.01171875
1772457083717849600,3.122849609375,-0.993927001953125,0.023590087890625,0.0140533447265625
1772457083727868700,3.13286865234375,-0.993743896484375,0.025390625,0.014373779296875
1772457083737886700,3.14288671875,-0.996307373046875,0.023468017578125,0.0148468017578125
1772457083747905500,3.152905517578125,-0.996612548828125,0.0237884521484375,0.0115509033203125
1772457083757923300,3.16292333984375,-0.99530029296875,0.0209808349609375,0.010833740234375
1772457083767942400,3.1729423828125,-0.9974822998046875,0.02154541015625,0.0125885009765625
1772457083777960400,3.18296044921875,-0.9945068359375,0.0222015380859375,0.013916015625
1772457083787979300,3.192979248046875,-0.9935455322265625,0.0228424072265625,0.0122528076171875
1772457083797997600,3.20299755859375,-0.995880126953125,0.0229339599609375,0.0129852294921875
1772457083808016600,3.2130166015625,-0.996185302734375,0.02435302734375,0.013946533203125
1772457083818034400,3.223034423828125,-0.993865966796875,0.0239410400390625,0.012298583984375
1772457083828053500,3.233053466796875,-0.9937744140625,0.022796630859375,0.0118255615234375
1772457083838071300,3.2430712890625,-0.9975433349609375,0.02154541015625,0.014862060546875
1772457083848090400,3.25309033203125,-0.9976806640625,0.020965576171875,0.013763427734375
1772457083858108400,3.2631083984375,-0.9953765869140625,0.0212554931640625,0.0125579833984375
1772457083868127200,3.273127197265625,-0.995025634765625,0.02264404296875,0.0130767822265625
1772457083878145500,3.2831455078125,-0.9952392578125,0.0240325927734375,0.014404296875
1772457083888164600,3.29316455078125,-0.9946746826171875,0.024627685546875,0.0120849609375
1772457083898182400,3.303182373046875,-0.99432373046875,0.02459716796875,0.0119171142578125
1772457083908201500,3.313201416015625,-0.9951324462890625,0.023834228515625,0.0146484375
1772457083918219300,3.32321923828125,-0.995880126953125,0.022857666015625,0.01318359375
1772457083928238300,3.33323828125,-0.9969024658203125,0.021392822265625,0.012451171875
1772457083938256400,3.34325634765625,-0.9960479736328125,0.0213470458984375,0.0125885009765625
1772457083948275200,3.353275146484375,-0.996734619140625,0.023529052734375,0.01373291015625
1772457083958293500,3.36329345703125,-0.9954986572265625,0.022125244140625,0.013458251953125
1772457083968312600,3.3733125,-0.9957733154296875,0.0232391357421875,0.0128021240234375
1772457083978330400,3.383330322265625,-0.9951171875,0.0241241455078125,0.01397705078125
1772457083988348400,3.393348388671875,-0.99432373046875,0.0237274169921875,0.011932373046875
1772457083998367500,3.403367431640625,-0.9944000244140625,0.022796630859375,0.01251220703125
1772457084008385500,3.413385498046875,-0.995758056640625,0.022979736328125,0.013458251953125
1772457084018404600,3.423404541015625,-0.996490478515625,0.020477294921875,0.013641357421875
1772457084028422400,3.43342236328125,-0.997314453125,0.023468017578125,0.014373779296875
1772457084038441500,3.44344140625,-0.9974517822265625,0.0222015380859375,0.013580322265625
1772457084048459500,3.45345947265625,-0.9965362548828125,0.023101806640625,0.013092041015625
1772457084058478300,3.463478271484375,-0.9960784912109375,0.02313232421875,0.0137786865234375
1772457084068496400,3.473496337890625,-0.99566650390625,0.0241851806640625,0.01336669921875
1772457084078515500,3.483515380859375,-0.9964752197265625,0.0224456787109375,0.0145263671875
1772457084088533500,3.493533447265625,-0.9959564208984375,0.0216827392578125,0.015167236328125
1772457084098552600,3.503552490234375,-0.994842529296875,0.0216827392578125,0.0136871337890625
1772457084108570400,3.5135703125,-0.9975738525390625,0.0229339599609375,0.0129547119140625
1772457084118589400,3.52358935546875,-0.9969329833984375,0.0222320556640625,0.0126495361328125
1772457084128607500,3.533607421875,-0.9938812255859375,0.022247314453125,0.01348876953125
1772457084138626300,3.543626220703125,-0.995513916015625,0.0239410400390625,0.0146026611328125
1772457084148644400,3.553644287109375,-0.9938507080078125,0.0224609375,0.0126800537109375
1772457084158663400,3.563663330078125,-0.9954833984375,0.02362060546875,0.0124359130859375
1772457084168681500,3.573681396484375,-0.995269775390625,0.0244293212890625,0.0137786865234375
1772457084178700500,3.583700439453125,-0.9966278076171875,0.0221099853515625,0.0122222900390625
1772457084188718300,3.59371826171875,-0.995513916015625,0.0218963623046875,0.0125579833984375
1772457084198737400,3.6037373046875,-0.994140625,0.022308349609375,0.0119171142578125
1772457084208755500,3.61375537109375,-0.99359130859375,0.022216796875,0.0129852294921875
1772457084218774300,3.623774169921875,-0.9960174560546875,0.0228729248046875,0.013458251953125
1772457084228792300,3.633792236328125,-0.99603271484375,0.0224151611328125,0.0131378173828125
1772457084238811400,3.643811279296875,-0.9933319091796875,0.0240020751953125,0.0146026611328125
1772457084248829400,3.653829345703125,-0.996063232421875,0.023193359375,0.01318359375
1772457084258848500,3.6638486328125,-0.9976959228515625,0.0223846435546875,0.011749267578125
1772457084268866600,3.673866455078125,-0.9949493408203125,0.021270751953125,0.010894775390625
1772457084278884400,3.68388427734375,-0.996368408203125,0.021392822265625,0.0139923095703125
1772457084288903400,3.6939033203125,-0.9969329833984375,0.0233612060546875,0.0135955810546875
1772457084298921500,3.70392138671875,-0.993682861328125,0.0230560302734375,0.0126190185546875
1772457084308940300,3.713940185546875,-0.996734619140625,0.0234832763671875,0.0123291015625
1772457084318958600,3.72395849609375,-0.9969329833984375,0.023223876953125,0.014434814453125
1772457084328977400,3.733977294921875,-0.994232177734375,0.0223388671875,0.0139923095703125
1772457084338995500,3.743995361328125,-0.993896484375,0.0242156982421875,0.0128173828125
1772457084349014500,3.7540146484375,-0.9969635009765625,0.023712158203125,0.015167236328125
1772457084359032300,3.7640322265625,-0.9949951171875,0.023956298828125,0.014984130859375
1772457084369051400,3.774051513671875,-0.99481201171875,0.022491455078125,0.0130767822265625
1772457084379069400,3.7840693359375,-0.9960174560546875,0.0232086181640625,0.0105743408203125
1772457084389088500,3.794088623046875,-0.994476318359375,0.0216522216796875,0.012603759765625
1772457084399106600,3.8041064453125,-0.9951019287109375,0.0221710205078125,0.0128936767578125
1772457084409125400,3.81412548828125,-0.9951171875,0.023651123046875,0.01190185546875
1772457084419143400,3.824143310546875,-0.997314453125,0.021942138671875,0.0114898681640625
1772457084429162500,3.83416259765625,-0.9959564208984375,0.02313232421875,0.0126800537109375
1772457084439180300,3.84418017578125,-0.993621826171875,0.021148681640625,0.01336669921875
1772457084449199400,3.854199462890625,-0.9957733154296875,0.0224151611328125,0.0130462646484375
1772457084459217700,3.8642177734375,-0.9956817626953125,0.0225830078125,0.0122833251953125
1772457084469236500,3.874236572265625,-0.9943084716796875,0.022003173828125,0.0122222900390625
1772457084479254500,3.884254638671875,-0.99609375,0.02325439453125,0.0133056640625
1772457084489273600,3.894273681640625,-0.9957427978515625,0.02386474609375,0.0123291015625
1772457084499291400,3.90429150390625,-0.9948272705078125,0.0232391357421875,0.0114593505859375
1772457084509310500,3.914310546875,-0.995025634765625,0.0227813720703125,0.0132598876953125
1772457084519328300,3.924328369140625,-0.9956512451171875,0.02142333984375,0.013336181640625
1772457084529347300,3.934347412109375,-0.9952545166015625,0.0224151611328125,0.01324462890625
1772457084539365600,3.94436572265625,-0.9959716796875,0.0234375,0.014190673828125
1772457084549383400,3.954383544921875,-0.9960174560546875,0.0236968994140625,0.0134735107421875
1772457084559402500,3.964402587890625,-0.9957275390625,0.021820068359375,0.0128326416015625
1772457084569420300,3.974420166015625,-0.99456787109375,0.021331787109375,0.014129638671875
1772457084579439400,3.984439453125,-0.9939117431640625,0.0229034423828125,0.0127716064453125
1772457084589457400,3.99445751953125,-0.9964447021484375,0.0236663818359375,0.012481689453125
1772457084599476200,4.004476318359375,-0.9957427978515625,0.022491455078125,0.0115509033203125
1772457084609494500,4.01449462890625,-0.994110107421875,0.0225830078125,0.013031005859375
1772457084619513600,4.024513671875,-0.9979248046875,0.02252197265625,0.0140533447265625
1772457084629531400,4.034531494140625,-0.9965362548828125,0.02313232421875,0.013885498046875
1772457084639550500,4.044550537109375,-0.9930572509765625,0.022125244140625,0.011627197265625
1772457084649568300,4.054568359375,-0.9954681396484375,0.0228271484375,0.0122222900390625
1772457084659587300,4.06458740234375,-0.998260498046875,0.025238037109375,0.01318359375
1772457084669605400,4.07460546875,-0.9931793212890625,0.02374267578125,0.012664794921875
1772457084679624200,4.084624267578125,-0.9955902099609375,0.022186279296875,0.0131072998046875
1772457084689642500,4.094642578125,-0.9992828369140625,0.0217742919921875,0.01446533203125
1772457084699661600,4.10466162109375,-0.996002197265625,0.0209197998046875,0.0125732421875
1772457084709679400,4.114679443359375,-0.9934234619140625,0.0214385986328125,0.0133209228515625
1772457084719698400,4.124698486328125,-0.9987945556640625,0.0223236083984375,0.012847900390625
1772457084729716500,4.134716552734375,-0.9951934814453125,0.0243072509765625,0.010955810546875
1772457084739735300,4.1447353515625,-0.9935760498046875,0.024017333984375,0.01373291015625
1772457084749753600,4.154753662109375,-0.9958648681640625,0.024017333984375,0.0142822265625
1772457084759772400,4.1647724609375,-0.9964599609375,0.021881103515625,0.0137176513671875
1772457084769790500,4.17479052734375,-0.99261474609375,0.022705078125,0.01214599609375
1772457084779808500,4.18480859375,-0.9964599609375,0.0226593017578125,0.01324462890625
1772457084789827600,4.19482763671875,-0.996826171875,0.0219268798828125,0.013671875
1772457084799845400,4.204845458984375,-0.99609375,0.023193359375,0.0129241943359375
1772457084809864400,4.214864501953125,-0.99591064453125,0.0221710205078125,0.01312255859375
1772457084819882500,4.224882568359375,-0.99761962890625,0.02178955078125,0.0130767822265625
1772457084829901600,4.234901611328125,-0.994384765625,0.022491455078125,0.013580322265625
1772457084839919600,4.244919677734375,-0.9942169189453125,0.0234527587890625,0.0128173828125
1772457084849938400,4.2549384765625,-0.9966278076171875,0.022918701171875,0.0125732421875
1772457084859956500,4.26495654296875,-0.994476318359375,0.0237884521484375,0.012725830078125
1772457084869975600,4.2749755859375,-0.9943695068359375,0.02099609375,0.0140228271484375
1772457084879993300,4.284993408203125,-0.996002197265625,0.0218963623046875,0.01385498046875
1772457084890012400,4.295012451171875,-0.9962158203125,0.0222320556640625,0.013397216796875
1772457084900030500,4.305030517578125,-0.993927001953125,0.0233306884765625,0.01416015625
1772457084910049500,4.315049560546875,-0.995391845703125,0.022613525390625,0.012542724609375
1772457084920067600,4.325067626953125,-0.9949798583984375,0.0225067138671875,0.0120697021484375
1772457084930086400,4.33508642578125,-0.9957427978515625,0.02392578125,0.0123138427734375
1772457084940104400,4.3451044921875,-0.994720458984375,0.0220184326171875,0.0131072998046875
1772457084950123500,4.35512353515625,-0.99462890625,0.02227783203125,0.0136260986328125
1772457084960141300,4.365141357421875,-0.9955902099609375,0.022613525390625,0.013641357421875
1772457084970160400,4.375160400390625,-0.99603271484375,0.0222320556640625,0.0134735107421875
1772457084980178700,4.3851787109375,-0.99493408203125,0.0225067138671875,0.0135650634765625
1772457084990197500,4.395197509765625,-0.9944610595703125,0.0229949951171875,0.012115478515625
1772457085000215600,4.405215576171875,-0.9947052001953125,0.023956298828125,0.0119171142578125
1772457085010234600,4.415234619140625,-0.9950714111328125,0.02410888671875,0.012725830078125
1772457085020252400,4.42525244140625,-0.995147705078125,0.0227203369140625,0.0120086669921875
1772457085030270500,4.4352705078125,-0.997039794921875,0.023590087890625,0.0126953125
1772457085040289300,4.445289306640625,-0.9961700439453125,0.02215576171875,0.0126495361328125
1772457085050307600,4.4553076171875,-0.99554443359375,0.02056884765625,0.012542724609375
1772457085060326700,4.46532666015625,-0.99560546875,0.0217437744140625,0.01239013671875
1772457085070344400,4.475344482421875,-0.9953460693359375,0.0224151611328125,0.013824462890625
1772457085080363500,4.485363525390625,-0.996307373046875,0.0242767333984375,0.0125274658203125
1772457085090381300,4.49538134765625,-0.99652099609375,0.0218658447265625,0.0137176513671875
1772457085100400400,4.505400390625,-0.9944610595703125,0.02227783203125,0.0145111083984375
1772457085110418400,4.51541845703125,-0.99517822265625,0.022003173828125,0.0133819580078125
1772457085120437500,4.5254375,-0.9943084716796875,0.0224151611328125,0.0126800537109375
1772457085130455600,4.53545556640625,-0.994537353515625,0.021636962890625,0.0142364501953125
1772457085140474600,4.545474609375,-0.9969482421875,0.02410888671875,0.012847900390625
1772457085150492400,4.555492431640625,-0.9942169189453125,0.022247314453125,0.01324462890625
1772457085160511500,4.565511474609375,-0.99444580078125,0.022735595703125,0.01324462890625
1772457085170529300,4.575529296875,-0.9940032958984375,0.0232696533203125,0.01275634765625
1772457085180548400,4.58554833984375,-0.9956817626953125,0.022308349609375,0.0116729736328125
1772457085190566700,4.595566650390625,-0.994659423828125,0.02276611328125,0.0130157470703125
1772457085200585500,4.60558544921875,-0.9951019287109375,0.022369384765625,0.0132293701171875
1772457085210603500,4.615603515625,-0.99609375,0.022430419921875,0.0135650634765625
1772457085220621600,4.62562158203125,-0.99639892578125,0.0223236083984375,0.0142974853515625
1772457085230640400,4.635640380859375,-0.9951934814453125,0.022796630859375,0.0126495361328125
1772457085240658400,4.645658447265625,-0.9940338134765625,0.02288818359375,0.0121917724609375
1772457085250677500,4.655677490234375,-0.9947509765625,0.0238800048828125,0.01239013671875
1772457085260695600,4.665695556640625,-0.99664306640625,0.0228729248046875,0.012176513671875
1772457085270714600,4.675714599609375,-0.9951019287109375,0.0235443115234375,0.0145416259765625
1772457085280732400,4.685732421875,-0.9949493408203125,0.022552490234375,0.01434326171875
1772457085290751500,4.69575146484375,-0.9964447021484375,0.0229949951171875,0.01324462890625
1772457085300769500,4.70576953125,-0.9947357177734375,0.0225677490234375,0.0122833251953125
1772457085310788400,4.715788330078125,-0.99566650390625,0.0218505859375,0.0132904052734375
1772457085320806400,4.725806396484375,-0.9956512451171875,0.0243988037109375,0.0111083984375
1772457085330825500,4.735825439453125,-0.9965057373046875,0.0248565673828125,0.01141357421875
1772457085340843500,4.745843505859375,-0.993072509765625,0.0235595703125,0.013580322265625
1772457085350862600,4.755862548828125,-0.996307373046875,0.023345947265625,0.0117034912109375
1772457085360880400,4.76588037109375,-0.99554443359375,0.02178955078125,0.0124359130859375
1772457085370899500,4.7758994140625,-0.9951019287109375,0.02294921875,0.0134735107421875
1772457085380917500,4.78591748046875,-0.99652099609375,0.02264404296875,0.0135650634765625
1772457085390936300,4.795936279296875,-0.995697021484375,0.021270751953125,0.013824462890625
1772457085400954400,4.805954345703125,-0.995452880859375,0.0216064453125,0.01519775390625
1772457085410973400,4.815973388671875,-0.9953155517578125,0.0218048095703125,0.01287841796875
1772457085420991500,4.825991455078125,-0.9945526123046875,0.0229339599609375,0.013824462890625
1772457085431009500,4.836009521484375,-0.99554443359375,0.022796630859375,0.0142059326171875
1772457085441028600,4.846028564453125,-0.9951171875,0.023681640625,0.0127410888671875
1772457085451046400,4.85604638671875,-0.99334716796875,0.0218963623046875,0.01397705078125
1772457085461065500,4.8660654296875,-0.9945220947265625,0.0225677490234375,0.01361083984375
1772457085471083500,4.87608349609375,-0.994049072265625,0.022125244140625,0.012939453125
1772457085481102600,4.8861025390625,-0.99639892578125,0.0243072509765625,0.0118255615234375
1772457085491120600,4.89612060546875,-0.994354248046875,0.022613525390625,0.013275146484375
1772457085501139500,4.906139404296875,-0.9959259033203125,0.0233306884765625,0.01324462890625
1772457085511157500,4.916157470703125,-0.994659423828125,0.0220489501953125,0.01214599609375
1772457085521176600,4.926176513671875,-0.994384765625,0.0231475830078125,0.0135498046875
1772457085531194400,4.9361943359375,-0.9961700439453125,0.0229949951171875,0.01318359375
1772457085541213400,4.94621337890625,-0.9963531494140625,0.0235137939453125,0.01129150390625
1772457085551231500,4.9562314453125,-0.9960784912109375,0.022308349609375,0.012176513671875
1772457085561250600,4.96625048828125,-0.996490478515625,0.02362060546875,0.012451171875
1772457085571268600,4.9762685546875,-0.9945220947265625,0.0229339599609375,0.0137786865234375
1772457085581287400,4.986287353515625,-0.9933624267578125,0.0225067138671875,0.012847900390625
1772457085591305500,4.996305419921875,-0.996307373046875,0.022216796875,0.01251220703125
1772457085601324500,5.006324462890625,-0.9949951171875,0.0221710205078125,0.0147247314453125
1772457085611342300,5.01634228515625,-0.995880126953125,0.0227508544921875,0.0134429931640625
1772457085621361400,5.026361328125,-0.9953460693359375,0.022369384765625,0.0121002197265625
1772457085631379500,5.03637939453125,-0.9954681396484375,0.023681640625,0.0123443603515625
1772457085641397500,5.0463974609375,-0.9953460693359375,0.0236663818359375,0.0135040283203125
1772457085651416600,5.05641650390625,-0.9971466064453125,0.023040771484375,0.01336669921875
1772457085661434400,5.066434326171875,-0.996368408203125,0.0220184326171875,0.0121307373046875
1772457085671453400,5.076453369140625,-0.9957275390625,0.0218048095703125,0.0129241943359375
1772457085681471500,5.086471435546875,-0.99578857421875,0.0228424072265625,0.012359619140625
1772457085691490300,5.096490234375,-0.995086669921875,0.022674560546875,0.0124664306640625
1772457085701508600,5.106508544921875,-0.9966888427734375,0.0220794677734375,0.0143585205078125
1772457085711527700,5.116527587890625,-0.995391845703125,0.022552490234375,0.01318359375
1772457085721545500,5.12654541015625,-0.994598388671875,0.022552490234375,0.0136260986328125
1772457085731564500,5.136564453125,-0.9977264404296875,0.022216796875,0.0128631591796875
1772457085741582300,5.146582275390625,-0.9956207275390625,0.022552490234375,0.01318359375
1772457085751602000,5.156601806640625,-0.997467041015625,0.02197265625,0.0142974853515625
1772457085761620000,5.166619873046875,-0.995758056640625,0.023101806640625,0.013427734375
1772457085771638800,5.176638671875,-0.996002197265625,0.0223541259765625,0.012603759765625
1772457085781657000,5.186656982421875,-0.9972076416015625,0.0229644775390625,0.014434814453125
1772457085791676200,5.19667626953125,-0.99542236328125,0.022186279296875,0.0127105712890625
1772457085801694000,5.20669384765625,-0.9953765869140625,0.02386474609375,0.0139007568359375
1772457085811712000,5.2167119140625,-0.9964752197265625,0.021636962890625,0.0119476318359375
1772457085821730800,5.226730712890625,-0.994171142578125,0.0236358642578125,0.012542724609375
1772457085831748900,5.236748779296875,-0.9962005615234375,0.0242156982421875,0.01275634765625
1772457085841768000,5.246767822265625,-0.996826171875,0.02325439453125,0.0123748779296875
1772457085851786000,5.256785888671875,-0.9942626953125,0.0230865478515625,0.01068115234375
1772457085861805000,5.26680517578125,-0.9954376220703125,0.0230560302734375,0.01214599609375
1772457085871822800,5.27682275390625,-0.994659423828125,0.0244903564453125,0.0118560791015625
1772457085881842000,5.286842041015625,-0.99407958984375,0.0229034423828125,0.0112457275390625
1772457085891860000,5.29685986328125,-0.9968719482421875,0.022735595703125,0.01239013671875
1772457085901878800,5.306878662109375,-0.9958953857421875,0.0235595703125,0.013153076171875
1772457085911896800,5.316896728515625,-0.9962158203125,0.0220184326171875,0.01214599609375
1772457085921916000,5.326916015625,-0.9962615966796875,0.022064208984375,0.0129241943359375
1772457085931934000,5.336933837890625,-0.9951934814453125,0.023406982421875,0.01239013671875
1772457085941953000,5.346953125,-0.9939727783203125,0.0234527587890625,0.01287841796875
1772457085951971000,5.35697119140625,-0.996368408203125,0.0222320556640625,0.011932373046875
1772457085961990000,5.366989990234375,-0.99566650390625,0.02313232421875,0.0142059326171875
1772457085972008000,5.377008056640625,-0.996368408203125,0.0216522216796875,0.0149993896484375
1772457085982027000,5.387027099609375,-0.994842529296875,0.022369384765625,0.0123443603515625
1772457085992044800,5.397044921875,-0.995635986328125,0.0228271484375,0.0138092041015625
1772457086002064000,5.40706396484375,-0.9949798583984375,0.022003173828125,0.0117950439453125
1772457086012082000,5.41708203125,-0.9962310791015625,0.0229644775390625,0.0121917724609375
1772457086022100000,5.427099853515625,-0.995025634765625,0.0211029052734375,0.0132904052734375
1772457086032119000,5.437119140625,-0.9957733154296875,0.021942138671875,0.01324462890625
1772457086042136800,5.44713671875,-0.9932403564453125,0.021575927734375,0.014739990234375
1772457086052156000,5.457156005859375,-0.995574951171875,0.0224151611328125,0.0146331787109375
1772457086062174000,5.467174072265625,-0.9964599609375,0.0226898193359375,0.0118408203125
1772457086072193000,5.477193115234375,-0.9953765869140625,0.021881103515625,0.011688232421875
1772457086082211000,5.487211181640625,-0.99676513671875,0.0228729248046875,0.012908935546875
1772457086092230000,5.49722998046875,-0.9962921142578125,0.0230865478515625,0.01190185546875
1772457086102248000,5.507248046875,-0.9944000244140625,0.02239990234375,0.0128173828125
1772457086112267000,5.51726708984375,-0.9945220947265625,0.0230560302734375,0.0123443603515625
1772457086122284800,5.527284912109375,-0.99542236328125,0.0216522216796875,0.013763427734375
1772457086132304000,5.537303955078125,-0.995635986328125,0.0223236083984375,0.012420654296875
1772457086142322000,5.547322021484375,-0.9952239990234375,0.02197265625,0.0113067626953125
1772457086152341000,5.557341064453125,-0.9938201904296875,0.0225982666015625,0.0123443603515625
1772457086162359000,5.567359130859375,-0.994964599609375,0.0226593017578125,0.013763427734375
1772457086172377900,5.5773779296875,-0.996307373046875,0.021697998046875,0.0121307373046875
1772457086182396000,5.58739599609375,-0.99639892578125,0.02239990234375,0.01373291015625
1772457086192414000,5.5974140625,-0.9969940185546875,0.0237884521484375,0.0123291015625
1772457086202432800,5.607432861328125,-0.9959869384765625,0.02349853515625,0.01165771484375
1772457086212451000,5.617451171875,-0.9971771240234375,0.0226593017578125,0.012664794921875
1772457086222470100,5.62747021484375,-0.9946746826171875,0.02191162109375,0.012847900390625
1772457086232488000,5.637488037109375,-0.9962615966796875,0.022216796875,0.01129150390625
1772457086242507000,5.647507080078125,-0.9957733154296875,0.02313232421875,0.012359619140625
1772457086252524800,5.65752490234375,-0.9939117431640625,0.023956298828125,0.0130462646484375
1772457086262544000,5.6675439453125,-0.9944610595703125,0.0229644775390625,0.014129638671875
1772457086272562000,5.67756201171875,-0.994140625,0.022308349609375,0.0140533447265625
1772457086282580700,5.687580810546875,-0.9950408935546875,0.0229034423828125,0.0123748779296875
1772457086292599000,5.69759912109375,-0.9951324462890625,0.02276611328125,0.0134735107421875
1772457086302618000,5.7076181640625,-0.9957427978515625,0.0220794677734375,0.0140533447265625
1772457086312636000,5.717635986328125,-0.994964599609375,0.023162841796875,0.0124359130859375
1772457086322655000,5.727655029296875,-0.9975128173828125,0.0216217041015625,0.012939453125
1772457086332672800,5.7376728515625,-0.9957122802734375,0.0216064453125,0.0126495361328125
1772457086342691800,5.74769189453125,-0.99578857421875,0.023162841796875,0.0153656005859375
1772457086352710000,5.7577099609375,-0.9951171875,0.023834228515625,0.0126495361328125
1772457086362729000,5.76772900390625,-0.997467041015625,0.02294921875,0.0113983154296875
1772457086372747000,5.7777470703125,-0.9952545166015625,0.022430419921875,0.01214599609375
1772457086382765000,5.78776513671875,-0.9947357177734375,0.02239990234375,0.01251220703125
1772457086392784000,5.797783935546875,-0.99591064453125,0.0225982666015625,0.01318359375
1772457086402802000,5.807802001953125,-0.9971466064453125,0.023712158203125,0.012237548828125
1772457086412821000,5.817821044921875,-0.9970245361328125,0.0226593017578125,0.0143585205078125
1772457086422839000,5.827839111328125,-0.9951019287109375,0.02215576171875,0.0156707763671875
1772457086432858000,5.837858154296875,-0.9972381591796875,0.02203369140625,0.013458251953125
1772457086442876000,5.8478759765625,-0.99627685546875,0.022125244140625,0.0142364501953125
1772457086452895000,5.85789501953125,-0.995758056640625,0.021484375,0.0132904052734375
1772457086462913000,5.8679130859375,-0.9949951171875,0.022613525390625,0.011871337890625
1772457086472931800,5.877931884765625,-0.9942779541015625,0.0228271484375,0.013336181640625
1772457086482950000,5.887949951171875,-0.9948577880859375,0.0213623046875,0.014801025390625
1772457086492969000,5.897968994140625,-0.994842529296875,0.022552490234375,0.0121307373046875
1772457086502987000,5.907987060546875,-0.9944000244140625,0.0222625732421875,0.0128326416015625
1772457086513006000,5.918006103515625,-0.9948272705078125,0.0223541259765625,0.0124359130859375
1772457086523024000,5.92802392578125,-0.996246337890625,0.0215606689453125,0.01318359375
1772457086533042000,5.9380419921875,-0.997406005859375,0.0221405029296875,0.0156097412109375
1772457086543061000,5.94806103515625,-0.995697021484375,0.023529052734375,0.0129547119140625
1772457086553078800,5.958078857421875,-0.9965667724609375,0.023223876953125,0.0125885009765625
1772457086563097900,5.968097900390625,-0.9944915771484375,0.0231781005859375,0.0137481689453125
1772457086573116000,5.978115966796875,-0.9945220947265625,0.0222015380859375,0.0145721435546875
1772457086583135000,5.988135009765625,-0.9953155517578125,0.0235443115234375,0.0139923095703125
1772457086593153000,5.998153076171875,-0.9966888427734375,0.0236663818359375,0.013336181640625
1772457086603171800,6.008171875,-0.99615478515625,0.0232086181640625,0.0118255615234375
1772457086613190000,6.01818994140625,-0.9954986572265625,0.0233001708984375,0.0125732421875
1772457086623209000,6.028208984375,-0.9962310791015625,0.02325439453125,0.0128326416015625
1772457086633226800,6.038226806640625,-0.9957733154296875,0.0234527587890625,0.0128173828125
1772457086643245800,6.048245849609375,-0.995697021484375,0.022430419921875,0.01275634765625
1772457086653264100,6.05826416015625,-0.9964141845703125,0.021331787109375,0.0121307373046875
1772457086663283000,6.068282958984375,-0.9970855712890625,0.0227508544921875,0.01336669921875
1772457086673301000,6.078301025390625,-0.9954986572265625,0.0233306884765625,0.0134429931640625
1772457086683320000,6.088320068359375,-0.99517822265625,0.0228729248046875,0.0123443603515625
1772457086693337900,6.098337890625,-0.9962615966796875,0.02203369140625,0.011932373046875
1772457086703357000,6.10835693359375,-0.9951019287109375,0.021484375,0.0099945068359375
1772457086713375000,6.118375,-0.994598388671875,0.0235443115234375,0.0124359130859375
1772457086723393000,6.12839306640625,-0.9962005615234375,0.022918701171875,0.0132598876953125
1772457086733412000,6.138412109375,-0.9959869384765625,0.0222930908203125,0.0120391845703125
1772457086743430000,6.148429931640625,-0.9936370849609375,0.0225677490234375,0.0126953125
1772457086753448200,6.1584482421875,-0.9942779541015625,0.0222930908203125,0.0124359130859375
1772457086763466200,6.16846630859375,-0.9964599609375,0.0224761962890625,0.011993408203125
1772457086773485300,6.1784853515625,-0.9964141845703125,0.0219573974609375,0.0132904052734375
1772457086783503400,6.18850341796875,-0.9950714111328125,0.02276611328125,0.0143585205078125
1772457086793522400,6.1985224609375,-0.9952545166015625,0.0214385986328125,0.012115478515625
1772457086803540200,6.208540283203125,-0.9949188232421875,0.0212860107421875,0.0128173828125
1772457086813559300,6.218559326171875,-0.99346923828125,0.0221405029296875,0.012847900390625
1772457086823577300,6.228577392578125,-0.9946746826171875,0.0214385986328125,0.013916015625
1772457086833596200,6.23859619140625,-0.996429443359375,0.0228729248046875,0.0137939453125
1772457086843614500,6.248614501953125,-0.9957733154296875,0.0229339599609375,0.0127716064453125
1772457086853633300,6.25863330078125,-0.995758056640625,0.0218353271484375,0.01361083984375
1772457086863651300,6.2686513671875,-0.9958343505859375,0.0219573974609375,0.0138702392578125
1772457086873669400,6.27866943359375,-0.9959564208984375,0.0222625732421875,0.0131072998046875
1772457086883688200,6.288688232421875,-0.9956207275390625,0.0225677490234375,0.0124969482421875
1772457086893706200,6.298706298828125,-0.995758056640625,0.020477294921875,0.0131378173828125
1772457086903725300,6.308725341796875,-0.9962615966796875,0.0220947265625,0.012786865234375
1772457086913743400,6.318743408203125,-0.99468994140625,0.023529052734375,0.0137176513671875
1772457086923762400,6.328762451171875,-0.996551513671875,0.0228424072265625,0.0141448974609375
1772457086933780200,6.3387802734375,-0.996246337890625,0.022003173828125,0.0126190185546875
1772457086943799300,6.34879931640625,-0.9970245361328125,0.022430419921875,0.013031005859375
1772457086953817300,6.3588173828125,-0.995758056640625,0.022247314453125,0.0121917724609375
1772457086963835100,6.368835205078125,-0.9935150146484375,0.022796630859375,0.0123291015625
1772457086973853400,6.378853515625,-0.995025634765625,0.0214691162109375,0.013580322265625
1772457086983872500,6.38887255859375,-0.996063232421875,0.0230712890625,0.0118865966796875
1772457086993890300,6.398890380859375,-0.994537353515625,0.02288818359375,0.01324462890625
1772457087003909400,6.408909423828125,-0.996307373046875,0.0230865478515625,0.0137939453125
1772457087013927200,6.41892724609375,-0.9958038330078125,0.0222625732421875,0.0138092041015625
1772457087023946200,6.4289462890625,-0.9951629638671875,0.02166748046875,0.0140380859375
1772457087033964300,6.43896435546875,-0.9959869384765625,0.0225830078125,0.013671875
1772457087043982300,6.448982421875,-0.9960174560546875,0.023712158203125,0.013275146484375
1772457087054001400,6.45900146484375,-0.994659423828125,0.0221405029296875,0.0131378173828125
1772457087064019200,6.469019287109375,-0.995697021484375,0.024444580078125,0.0117950439453125
1772457087074038300,6.479038330078125,-0.9969482421875,0.0243072509765625,0.0134735107421875
1772457087084056300,6.489056396484375,-0.9954071044921875,0.0221099853515625,0.01495361328125
1772457087094075100,6.4990751953125,-0.9957122802734375,0.0226287841796875,0.0126953125
1772457087104093400,6.509093505859375,-0.99664306640625,0.023468017578125,0.0122528076171875
1772457087114112300,6.5191123046875,-0.994903564453125,0.0226898193359375,0.0147857666015625
1772457087124130300,6.52913037109375,-0.9959869384765625,0.0218353271484375,0.0124664306640625
1772457087134149400,6.5391494140625,-0.99737548828125,0.0230255126953125,0.0130462646484375
1772457087144167400,6.54916748046875,-0.99542236328125,0.02362060546875,0.0132293701171875
1772457087154186200,6.559186279296875,-0.9947967529296875,0.023345947265625,0.0125579833984375
1772457087164204300,6.569204345703125,-0.9952545166015625,0.0246734619140625,0.01373291015625
1772457087174223400,6.579223388671875,-0.995697021484375,0.0216064453125,0.014678955078125
1772457087184241400,6.589241455078125,-0.9960479736328125,0.022918701171875,0.013702392578125
1772457087194260500,6.599260498046875,-0.9964599609375,0.0235595703125,0.01324462890625
1772457087204278300,6.6092783203125,-0.9956207275390625,0.0217132568359375,0.012054443359375
1772457087214296300,6.61929638671875,-0.9944000244140625,0.0222015380859375,0.0142059326171875
1772457087224315400,6.6293154296875,-0.995452880859375,0.021881103515625,0.01336669921875
1772457087234333200,6.639333251953125,-0.995819091796875,0.02252197265625,0.013275146484375
1772457087244352300,6.649352294921875,-0.9949951171875,0.023529052734375,0.010772705078125
1772457087254370300,6.659370361328125,-0.994140625,0.02197265625,0.0137176513671875
1772457087264389400,6.669389404296875,-0.9949951171875,0.0233001708984375,0.0139007568359375
1772457087274407400,6.679407470703125,-0.9961090087890625,0.022674560546875,0.013336181640625
1772457087284426200,6.68942626953125,-0.9943695068359375,0.0227203369140625,0.0114288330078125
1772457087294444300,6.6994443359375,-0.995208740234375,0.0233154296875,0.0133514404296875
1772457087304463400,6.70946337890625,-0.99517822265625,0.0225372314453125,0.0131378173828125
1772457087314481200,6.719481201171875,-0.9954376220703125,0.0233917236328125,0.0126495361328125
1772457087324500200,6.729500244140625,-0.994781494140625,0.022064208984375,0.0139923095703125
1772457087334518300,6.739518310546875,-0.9971160888671875,0.0214996337890625,0.0132904052734375
1772457087344537300,6.749537353515625,-0.9963836669921875,0.023040771484375,0.0124053955078125
1772457087354555400,6.759555419921875,-0.9951629638671875,0.0238189697265625,0.011627197265625
1772457087364574200,6.76957421875,-0.9956512451171875,0.023223876953125,0.01202392578125
1772457087374592300,6.77959228515625,-0.997100830078125,0.0224151611328125,0.012359619140625
1772457087384611300,6.789611328125,-0.9966583251953125,0.022216796875,0.0126800537109375
1772457087394629000,6.799629150390625,-0.99462890625,0.02130126953125,0.013671875
1772457087404648200,6.809648193359375,-0.9950714111328125,0.0224151611328125,0.0128326416015625
1772457087414666500,6.81966650390625,-0.9959716796875,0.02362060546875,0.0131378173828125
1772457087424685300,6.829685302734375,-0.9952392578125,0.0239715576171875,0.0119171142578125
1772457087434703400,6.839703369140625,-0.99591064453125,0.0205841064453125,0.0131378173828125
1772457087444722400,6.849722412109375,-0.9955902099609375,0.022430419921875,0.0137176513671875
1772457087454740200,6.859740234375,-0.9962005615234375,0.0232086181640625,0.0135955810546875
1772457087464758300,6.86975830078125,-0.9950103759765625,0.0232696533203125,0.013031005859375
1772457087474777300,6.87977734375,-0.9942779541015625,0.022613525390625,0.0118408203125
1772457087484795400,6.88979541015625,-0.9958648681640625,0.023468017578125,0.012542724609375
1772457087494814500,6.899814453125,-0.9946441650390625,0.022613525390625,0.012359619140625
1772457087504832300,6.909832275390625,-0.9958343505859375,0.022125244140625,0.0142669677734375
1772457087514851300,6.919851318359375,-0.996368408203125,0.0240020751953125,0.0142974853515625
1772457087524869000,6.929869140625,-0.99407958984375,0.0233154296875,0.01312255859375
1772457087534888200,6.93988818359375,-0.9946746826171875,0.0227508544921875,0.0130767822265625
1772457087544906500,6.949906494140625,-0.995330810546875,0.021881103515625,0.01275634765625
1772457087554925300,6.95992529296875,-0.9966888427734375,0.0229339599609375,0.0139312744140625
1772457087564943400,6.969943359375,-0.995147705078125,0.0229034423828125,0.0135650634765625
1772457087574962400,6.97996240234375,-0.99505615234375,0.0234222412109375,0.0117645263671875
1772457087584980200,6.989980224609375,-0.9948272705078125,0.023284912109375,0.0131378173828125
1772457087594999300,6.999999267578125,-0.9950408935546875,0.02264404296875,0.0130767822265625
1772457087605017300,7.010017333984375,-0.99468994140625,0.023773193359375,0.0116424560546875
1772457087615035400,7.020035400390625,-0.9950103759765625,0.023162841796875,0.01287841796875
1772457087625054500,7.030054443359375,-0.994873046875,0.021575927734375,0.0132904052734375
1772457087635072300,7.040072265625,-0.994537353515625,0.022216796875,0.015167236328125
1772457087645091300,7.05009130859375,-0.9944915771484375,0.0236358642578125,0.0125732421875
1772457087655109400,7.060109375,-0.996368408203125,0.0226593017578125,0.014373779296875
1772457087665128200,7.070128173828125,-0.995269775390625,0.022430419921875,0.0135650634765625
1772457087675146200,7.080146240234375,-0.994598388671875,0.023040771484375,0.0125885009765625
1772457087685165300,7.090165283203125,-0.9949493408203125,0.02276611328125,0.0128631591796875
1772457087695183400,7.100183349609375,-0.994598388671875,0.02166748046875,0.0138092041015625
1772457087705202400,7.110202392578125,-0.9944305419921875,0.023040771484375,0.0141448974609375
1772457087715220200,7.12022021484375,-0.995880126953125,0.0234222412109375,0.0157470703125
1772457087725239300,7.1302392578125,-0.995758056640625,0.022491455078125,0.0123291015625
1772457087735257300,7.14025732421875,-0.9961700439453125,0.023040771484375,0.0145416259765625
1772457087745276200,7.150276123046875,-0.9951629638671875,0.0230255126953125,0.01214599609375
1772457087755295200,7.160295166015625,-0.995849609375,0.023681640625,0.0123138427734375
1772457087765313300,7.170313232421875,-0.996002197265625,0.023406982421875,0.012664794921875
1772457087775332000,7.18033203125,-0.9956817626953125,0.022216796875,0.0151824951171875
1772457087785350400,7.190350341796875,-0.9957122802734375,0.023590087890625,0.0127716064453125
1772457087795369500,7.200369384765625,-0.99542236328125,0.02374267578125,0.014373779296875
1772457087805387300,7.21038720703125,-0.9951934814453125,0.0237884521484375,0.012176513671875
1772457087815406300,7.22040625,-0.995361328125,0.0219573974609375,0.0135345458984375
1772457087825424100,7.230424072265625,-0.9944915771484375,0.023223876953125,0.01312255859375
1772457087835443200,7.240443115234375,-0.9966583251953125,0.0230255126953125,0.012664794921875
1772457087845461200,7.250461181640625,-0.994110107421875,0.0208587646484375,0.012115478515625
1772457087855480300,7.260480224609375,-0.992919921875,0.0228271484375,0.012603759765625
1772457087865498400,7.270498291015625,-0.99420166015625,0.02203369140625,0.012542724609375
1772457087875517400,7.280517333984375,-0.995758056640625,0.0229339599609375,0.012542724609375
1772457087885535200,7.29053515625,-0.995086669921875,0.022979736328125,0.012847900390625
1772457087895554300,7.30055419921875,-0.994354248046875,0.0220184326171875,0.0122528076171875
1772457087905572400,7.310572265625,-0.9950714111328125,0.022064208984375,0.0110015869140625
1772457087915590400,7.32059033203125,-0.99542236328125,0.0233306884765625,0.0117034912109375
1772457087925609500,7.330609375,-0.9958648681640625,0.0227813720703125,0.012054443359375
1772457087935627300,7.340627197265625,-0.9958343505859375,0.0230560302734375,0.0133209228515625
1772457087945646300,7.350646240234375,-0.9959869384765625,0.022186279296875,0.013641357421875
1772457087955664400,7.360664306640625,-0.99468994140625,0.0234832763671875,0.01361083984375
1772457087965683200,7.37068310546875,-0.9965057373046875,0.0232391357421875,0.0127105712890625
1772457087975701200,7.380701171875,-0.99517822265625,0.022979736328125,0.0120849609375
1772457087985720300,7.39072021484375,-0.9963226318359375,0.0213775634765625,0.01287841796875
1772457087995738400,7.40073828125,-0.995208740234375,0.0218658447265625,0.0145721435546875
1772457088005757400,7.41075732421875,-0.9944000244140625,0.0211181640625,0.0140838623046875
1772457088015775200,7.420775146484375,-0.995208740234375,0.023773193359375,0.0118255615234375
1772457088025794300,7.430794189453125,-0.994659423828125,0.023681640625,0.0130157470703125
1772457088035812400,7.440812255859375,-0.9947967529296875,0.0234527587890625,0.01446533203125
1772457088045831200,7.4508310546875,-0.9949188232421875,0.022796630859375,0.0114898681640625
1772457088055849200,7.46084912109375,-0.9948577880859375,0.02374267578125,0.0104522705078125
1772457088065867500,7.470867431640625,-0.9956817626953125,0.022491455078125,0.013519287109375
1772457088075886300,7.48088623046875,-0.996337890625,0.0229339599609375,0.0127410888671875
1772457088085904400,7.490904296875,-0.996002197265625,0.0235748291015625,0.0133056640625
1772457088095923500,7.50092333984375,-0.994354248046875,0.0231475830078125,0.0118408203125
1772457088105941200,7.510941162109375,-0.9959564208984375,0.0228118896484375,0.0137481689453125
1772457088115960300,7.520960205078125,-0.99591064453125,0.023223876953125,0.0129547119140625
1772457088125978000,7.53097802734375,-0.99591064453125,0.0215606689453125,0.01263427734375
1772457088135997200,7.5409970703125,-0.9953765869140625,0.0234222412109375,0.0122528076171875
1772457088146015500,7.551015380859375,-0.99676513671875,0.021759033203125,0.0141754150390625
1772457088156034300,7.561034423828125,-0.995086669921875,0.0242919921875,0.0128021240234375
1772457088166052400,7.57105224609375,-0.99493408203125,0.0223846435546875,0.012359619140625
1772457088176071400,7.581071533203125,-0.995758056640625,0.022125244140625,0.01416015625
1772457088186089200,7.591089111328125,-0.994903564453125,0.022369384765625,0.0140838623046875
1772457088196108300,7.6011083984375,-0.9969940185546875,0.0233001708984375,0.01300048828125
1772457088206126300,7.611126220703125,-0.9959716796875,0.0240325927734375,0.012725830078125
1772457088216144400,7.621144287109375,-0.9955902099609375,0.0224761962890625,0.0132904052734375
1772457088226163500,7.63116357421875,-0.994659423828125,0.0233612060546875,0.0131072998046875
1772457088236181200,7.64118115234375,-0.994476318359375,0.0225067138671875,0.011962890625
1772457088246200300,7.651200439453125,-0.9950714111328125,0.022735595703125,0.0123443603515625
1772457088256218000,7.661218017578125,-0.9949493408203125,0.023895263671875,0.012237548828125
1772457088266237200,7.6712373046875,-0.9958038330078125,0.0232086181640625,0.0132293701171875
1772457088276255500,7.68125537109375,-0.9962005615234375,0.0224609375,0.013397216796875
1772457088286274300,7.6912744140625,-0.995819091796875,0.02142333984375,0.0128326416015625
1772457088296292400,7.701292236328125,-0.99444580078125,0.0234527587890625,0.0135650634765625
1772457088306311400,7.7113115234375,-0.9964447021484375,0.021392822265625,0.0142364501953125
1772457088316329200,7.7213291015625,-0.9938201904296875,0.02215576171875,0.011322021484375
1772457088326348300,7.731348388671875,-0.9930572509765625,0.0225830078125,0.0133209228515625
1772457088336366300,7.741366455078125,-0.9965057373046875,0.0214385986328125,0.01458740234375
1772457088346385200,7.75138525390625,-0.9956512451171875,0.0230255126953125,0.01177978515625
1772457088356403500,7.761403564453125,-0.9949493408203125,0.023223876953125,0.014251708984375
1772457088366421200,7.771421142578125,-0.9958648681640625,0.0228729248046875,0.0130615234375
1772457088376440300,7.7814404296875,-0.994110107421875,0.023162841796875,0.0132293701171875
1772457088386458400,7.791458251953125,-0.99603271484375,0.0234375,0.0127105712890625
1772457088396477200,7.801477294921875,-0.9964141845703125,0.022918701171875,0.0126190185546875
1772457088406495200,7.8114951171875,-0.995697021484375,0.023651123046875,0.013946533203125
1772457088416514300,7.821514404296875,-0.9939727783203125,0.022369384765625,0.0135345458984375
1772457088426532400,7.831532470703125,-0.99713134765625,0.0226287841796875,0.0130615234375
1772457088436551400,7.841551513671875,-0.9961090087890625,0.0229034423828125,0.012298583984375
1772457088446569200,7.8515693359375,-0.9951324462890625,0.0237884521484375,0.0129547119140625
1772457088456588300,7.86158837890625,-0.99560546875,0.0242767333984375,0.01470947265625
1772457088466606300,7.8716064453125,-0.99542236328125,0.0234375,0.014434814453125
1772457088476625200,7.881625244140625,-0.9949951171875,0.0233917236328125,0.014190673828125
1772457088486643200,7.891643310546875,-0.9956512451171875,0.02301025390625,0.0135955810546875
1772457088496661500,7.90166162109375,-0.99566650390625,0.02264404296875,0.0133209228515625
1772457088506680300,7.911680419921875,-0.9958038330078125,0.0223541259765625,0.013092041015625
1772457088516698400,7.921698486328125,-0.9953765869140625,0.0231781005859375,0.0139923095703125
1772457088526717400,7.931717529296875,-0.9958953857421875,0.0224761962890625,0.0131378173828125
1772457088536735200,7.9417353515625,-0.9950103759765625,0.022613525390625,0.013427734375
1772457088546754300,7.95175439453125,-0.9962005615234375,0.0231781005859375,0.0127716064453125
1772457088556772400,7.9617724609375,-0.9944000244140625,0.023651123046875,0.0120697021484375
1772457088566791400,7.97179150390625,-0.9941558837890625,0.022705078125,0.0131378173828125
1772457088576809500,7.9818095703125,-0.9954376220703125,0.0223846435546875,0.0131683349609375
1772457088586828300,7.991828369140625,-0.994659423828125,0.0232086181640625,0.0120086669921875
1772457088596846300,8.001846435546875,-0.9948577880859375,0.0222320556640625,0.0126495361328125
1772457088606865400,8.011865478515626,-0.9960479736328125,0.0230712890625,0.0116424560546875
1772457088616883200,8.02188330078125,-0.9950714111328125,0.0230865478515625,0.0117034912109375
1772457088626902300,8.03190234375,-0.994537353515625,0.0223388671875,0.0130767822265625
1772457088636920300,8.04192041015625,-0.9954681396484375,0.02337646484375,0.013031005859375
1772457088646938400,8.0519384765625,-0.994964599609375,0.0224761962890625,0.0119171142578125
1772457088656957400,8.06195751953125,-0.9957733154296875,0.0239410400390625,0.0124664306640625
1772457088666975200,8.071975341796875,-0.9944305419921875,0.0225067138671875,0.01251220703125
1772457088676994300,8.081994384765625,-0.9944915771484375,0.0221099853515625,0.012908935546875
1772457088687012000,8.09201220703125,-0.994964599609375,0.0232391357421875,0.0151214599609375
1772457088697031200,8.10203125,-0.9962158203125,0.0224456787109375,0.0148773193359375
1772457088707049500,8.112049560546875,-0.994781494140625,0.02325439453125,0.0128173828125
1772457088717068300,8.122068359375,-0.9935760498046875,0.0218963623046875,0.0124359130859375
1772457088727086300,8.13208642578125,-0.9947052001953125,0.021697998046875,0.0137786865234375
1772457088737105400,8.14210546875,-0.994720458984375,0.022857666015625,0.0135650634765625
1772457088747123200,8.152123291015625,-0.9963531494140625,0.0240478515625,0.013153076171875
1772457088757141500,8.1621416015625,-0.9953765869140625,0.022247314453125,0.0133209228515625
1772457088767159600,8.17215966796875,-0.994903564453125,0.02081298828125,0.015625
1772457088777177600,8.182177490234375,-0.995697021484375,0.02252197265625,0.012420654296875
1772457088787196700,8.19219677734375,-0.994781494140625,0.0224609375,0.0126800537109375
1772457088797214500,8.20221435546875,-0.992889404296875,0.024322509765625,0.0129241943359375
1772457088807233500,8.212233642578125,-0.9961700439453125,0.022705078125,0.0136566162109375
1772457088817251300,8.222251220703125,-0.9953460693359375,0.022430419921875,0.013519287109375
1772457088827270400,8.2322705078125,-0.9958648681640625,0.0220947265625,0.013031005859375
1772457088837288700,8.242288818359375,-0.995880126953125,0.021942138671875,0.0123748779296875
1772457088847307500,8.2523076171875,-0.9974517822265625,0.0234375,0.0123291015625
1772457088857325600,8.26232568359375,-0.9964447021484375,0.0218658447265625,0.0118865966796875
1772457088867344600,8.2723447265625,-0.99542236328125,0.0215301513671875,0.01361083984375
1772457088877362400,8.282362548828125,-0.99578857421875,0.02313232421875,0.0137481689453125
1772457088887381500,8.292381591796875,-0.995269775390625,0.0228271484375,0.0119171142578125
1772457088897399600,8.302399658203125,-0.9952850341796875,0.0228271484375,0.01324462890625
1772457088907418400,8.31241845703125,-0.9952239990234375,0.022003173828125,0.0130462646484375
1772457088917436700,8.322436767578125,-0.9963531494140625,0.0228271484375,0.0149993896484375
1772457088927454500,8.332454345703125,-0.995025634765625,0.0230865478515625,0.0123138427734375
1772457088937473500,8.3424736328125,-0.994781494140625,0.022369384765625,0.0130615234375
1772457088947491600,8.35249169921875,-0.99468994140625,0.02252197265625,0.0134429931640625
1772457088957510400,8.362510498046875,-0.995147705078125,0.0225677490234375,0.013824462890625
1772457088967528700,8.37252880859375,-0.994842529296875,0.0230255126953125,0.0113983154296875
1772457088977547500,8.382547607421875,-0.995208740234375,0.024078369140625,0.0120391845703125
1772457088987565600,8.392565673828125,-0.9967041015625,0.0226593017578125,0.0118255615234375
1772457088997584600,8.402584716796875,-0.9954681396484375,0.022247314453125,0.0131988525390625
1772457089007602400,8.4126025390625,-0.994415283203125,0.0220184326171875,0.0117034912109375
1772457089017621500,8.42262158203125,-0.995849609375,0.0225372314453125,0.011749267578125
1772457089027639600,8.4326396484375,-0.994964599609375,0.0218658447265625,0.012054443359375
1772457089037658400,8.442658447265625,-0.9946441650390625,0.0227203369140625,0.0129852294921875
1772457089047676700,8.4526767578125,-0.9955596923828125,0.0226287841796875,0.012359619140625
1772457089057694700,8.46269482421875,-0.99578857421875,0.0218048095703125,0.0137176513671875
1772457089067713500,8.472713623046875,-0.9942626953125,0.021697998046875,0.01287841796875
1772457089077731600,8.482731689453125,-0.995330810546875,0.022491455078125,0.0132293701171875
1772457089087750700,8.492750732421875,-0.996002197265625,0.0229034423828125,0.0126800537109375
1772457089097768400,8.5027685546875,-0.9958038330078125,0.023590087890625,0.0124359130859375
1772457089107787500,8.51278759765625,-0.99481201171875,0.0234222412109375,0.012115478515625
1772457089117805600,8.5228056640625,-0.9957122802734375,0.0226593017578125,0.0128631591796875
1772457089127824600,8.53282470703125,-0.9968719482421875,0.02313232421875,0.0140533447265625
1772457089137842700,8.5428427734375,-0.995880126953125,0.022918701171875,0.0143280029296875
1772457089147861500,8.552861572265625,-0.995391845703125,0.021636962890625,0.0108642578125
1772457089157879600,8.562879638671875,-0.9959259033203125,0.021209716796875,0.0125732421875
1772457089167898600,8.572898681640625,-0.995208740234375,0.0246429443359375,0.0158843994140625
1772457089177916400,8.58291650390625,-0.9955291748046875,0.0223236083984375,0.0135650634765625
1772457089187935500,8.592935546875,-0.9954681396484375,0.022430419921875,0.0119171142578125
1772457089197953500,8.60295361328125,-0.9959869384765625,0.0234375,0.013519287109375
1772457089207971600,8.6129716796875,-0.9954071044921875,0.0234222412109375,0.0134124755859375
1772457089217990700,8.62299072265625,-0.9947509765625,0.024810791015625,0.014007568359375
1772457089228008400,8.633008544921875,-0.9964752197265625,0.0225830078125,0.012115478515625
1772457089238027500,8.643027587890625,-0.9966278076171875,0.0232696533203125,0.0134124755859375
1772457089248045600,8.653045654296875,-0.9958038330078125,0.0231781005859375,0.013092041015625
1772457089258064400,8.663064453125,-0.9950408935546875,0.0222930908203125,0.0122222900390625
1772457089268082700,8.673082763671875,-0.996124267578125,0.0222015380859375,0.012420654296875
1772457089278101500,8.6831015625,-0.9956512451171875,0.023284912109375,0.01336669921875
1772457089288119600,8.69311962890625,-0.994903564453125,0.0225372314453125,0.012481689453125
1772457089298138600,8.703138671875,-0.995391845703125,0.023162841796875,0.0118255615234375
1772457089308156400,8.713156494140625,-0.9951324462890625,0.0232391357421875,0.0126190185546875
1772457089318175500,8.723175537109375,-0.9944305419921875,0.0234527587890625,0.01361083984375
1772457089328193800,8.73319384765625,-0.995941162109375,0.022216796875,0.0128173828125
1772457089338211600,8.743211669921875,-0.9965362548828125,0.02301025390625,0.0115203857421875
1772457089348230700,8.753230712890625,-0.994140625,0.0234222412109375,0.0145721435546875
1772457089358248400,8.76324853515625,-0.994842529296875,0.02239990234375,0.0133819580078125
1772457089368267500,8.773267578125,-0.996337890625,0.0228118896484375,0.0111083984375
1772457089378285600,8.78328564453125,-0.99444580078125,0.0222930908203125,0.01153564453125
1772457089388304400,8.793304443359375,-0.993560791015625,0.0244293212890625,0.012908935546875
1772457089398322700,8.80332275390625,-0.995147705078125,0.024261474609375,0.0131683349609375
1772457089408341800,8.813341796875,-0.995574951171875,0.0236968994140625,0.01190185546875
1772457089418359600,8.823359619140625,-0.9936981201171875,0.0219268798828125,0.0136871337890625
1772457089428378600,8.833378662109375,-0.9948883056640625,0.02252197265625,0.0142822265625
1772457089438396400,8.843396484375,-0.995147705078125,0.0238037109375,0.0139312744140625
1772457089448415500,8.85341552734375,-0.9959716796875,0.023193359375,0.0119171142578125
1772457089458433500,8.86343359375,-0.994720458984375,0.0221099853515625,0.0128173828125
1772457089468451600,8.87345166015625,-0.9954833984375,0.0211334228515625,0.012542724609375
1772457089478470700,8.883470703125,-0.9955902099609375,0.02203369140625,0.0140533447265625
1772457089488488700,8.89348876953125,-0.9952239990234375,0.0239715576171875,0.014434814453125
1772457089498507500,8.903507568359375,-0.9947052001953125,0.02349853515625,0.0133819580078125
1772457089508525600,8.913525634765625,-0.996429443359375,0.022857666015625,0.012908935546875
1772457089518544600,8.923544677734375,-0.9955596923828125,0.0219879150390625,0.01220703125
1772457089528562400,8.9335625,-0.996124267578125,0.0235443115234375,0.0118865966796875
1772457089538581500,8.94358154296875,-0.9962310791015625,0.023468017578125,0.0124664306640625
1772457089548599600,8.953599609375,-0.9968719482421875,0.022491455078125,0.0133209228515625
1772457089558618600,8.96361865234375,-0.996856689453125,0.0215301513671875,0.0123138427734375
1772457089568636700,8.97363671875,-0.99578857421875,0.0226593017578125,0.014251708984375
1772457089578655500,8.983655517578125,-0.9967193603515625,0.0233917236328125,0.013580322265625
1772457089588673500,8.993673583984375,-0.9946441650390625,0.0233001708984375,0.013427734375
1772457089598691600,9.003691650390625,-0.994384765625,0.021942138671875,0.0112152099609375
1772457089608710400,9.01371044921875,-0.995086669921875,0.022186279296875,0.01373291015625
1772457089618728700,9.023728759765625,-0.9939727783203125,0.022308349609375,0.0143585205078125
1772457089628747500,9.03374755859375,-0.995269775390625,0.0230712890625,0.0123138427734375
1772457089638765600,9.043765625,-0.993865966796875,0.0218963623046875,0.012786865234375
1772457089648784600,9.05378466796875,-0.994781494140625,0.0226593017578125,0.0134735107421875
1772457089658802400,9.063802490234375,-0.99468994140625,0.0224151611328125,0.01214599609375
1772457089668821500,9.073821533203125,-0.99560546875,0.0239715576171875,0.013336181640625
1772457089678839600,9.083839599609375,-0.994873046875,0.0237274169921875,0.0131988525390625
1772457089688858600,9.093858642578125,-0.9948883056640625,0.02288818359375,0.0140228271484375
1772457089698876700,9.103876708984375,-0.9957427978515625,0.021728515625,0.0140838623046875
1772457089708895500,9.1138955078125,-0.996185302734375,0.023162841796875,0.0128021240234375
1772457089718913500,9.12391357421875,-0.9949493408203125,0.0220489501953125,0.013397216796875
1772457089728932600,9.1339326171875,-0.9948577880859375,0.0236053466796875,0.0134124755859375
1772457089738950400,9.143950439453125,-0.995574951171875,0.0230560302734375,0.0128021240234375
1772457089748968700,9.15396875,-0.9947357177734375,0.0226898193359375,0.0124359130859375
1772457089758987500,9.163987548828125,-0.9953155517578125,0.0233154296875,0.013641357421875
1772457089769005600,9.174005615234375,-0.9962615966796875,0.023284912109375,0.011993408203125
1772457089779024400,9.1840244140625,-0.995819091796875,0.02166748046875,0.0113983154296875
1772457089789042400,9.19404248046875,-0.9943389892578125,0.0233306884765625,0.0125274658203125
1772457089799061500,9.2040615234375,-0.9943084716796875,0.0227508544921875,0.0126495361328125
1772457089809079300,9.214079345703125,-0.99615478515625,0.0228118896484375,0.01287841796875
1772457089819098400,9.224098388671875,-0.9965057373046875,0.02288818359375,0.0140380859375
1772457089829116700,9.23411669921875,-0.993927001953125,0.0225982666015625,0.011993408203125
1772457089839135500,9.244135498046875,-0.9965667724609375,0.023345947265625,0.0137481689453125
1772457089849153500,9.254153564453125,-0.99652099609375,0.0229339599609375,0.0134735107421875
1772457089859171300,9.26417138671875,-0.9952850341796875,0.022918701171875,0.011962890625
1772457089869190400,9.2741904296875,-0.9935150146484375,0.0227813720703125,0.014801025390625
1772457089879208400,9.28420849609375,-0.9955291748046875,0.0221710205078125,0.014312744140625
1772457089889227300,9.294227294921875,-0.99566650390625,0.021820068359375,0.012176513671875
1772457089899245600,9.30424560546875,-0.9954071044921875,0.020843505859375,0.0142059326171875
1772457089909264600,9.3142646484375,-0.996826171875,0.021484375,0.0142974853515625
1772457089919282400,9.324282470703125,-0.9954833984375,0.023590087890625,0.0127105712890625
1772457089929301500,9.334301513671875,-0.995452880859375,0.023223876953125,0.0133209228515625
1772457089939319300,9.3443193359375,-0.9953155517578125,0.0241546630859375,0.0131683349609375
1772457089949338400,9.35433837890625,-0.99591064453125,0.0230712890625,0.0128936767578125
1772457089959356700,9.364356689453125,-0.9954071044921875,0.023345947265625,0.0123138427734375
1772457089969375500,9.37437548828125,-0.996185302734375,0.0235443115234375,0.012847900390625
1772457089979393500,9.3843935546875,-0.9953155517578125,0.02288818359375,0.0127410888671875
1772457089989411600,9.39441162109375,-0.996612548828125,0.02264404296875,0.012847900390625
1772457089999430400,9.404430419921875,-0.9979400634765625,0.022247314453125,0.01422119140625
1772457090009448400,9.414448486328125,-0.9950714111328125,0.02349853515625,0.0128631591796875
1772457090019467500,9.424467529296875,-0.994873046875,0.0226898193359375,0.01220703125
1772457090029485600,9.434485595703125,-0.99542236328125,0.0230712890625,0.0130157470703125
1772457090039504600,9.444504638671875,-0.9965972900390625,0.022674560546875,0.0128021240234375
1772457090049522400,9.4545224609375,-0.993316650390625,0.0228118896484375,0.0135040283203125
1772457090059541500,9.46454150390625,-0.9954986572265625,0.0233612060546875,0.0125732421875
1772457090069559600,9.4745595703125,-0.99725341796875,0.0235595703125,0.01190185546875
1772457090079578400,9.484578369140625,-0.9960784912109375,0.0231475830078125,0.013824462890625
1772457090089596400,9.494596435546875,-0.9940948486328125,0.022735595703125,0.0147857666015625
1772457090099615500,9.504615478515625,-0.9949798583984375,0.0245208740234375,0.013763427734375
1772457090109633500,9.514633544921875,-0.9971466064453125,0.0229339599609375,0.013031005859375
1772457090119652600,9.524652587890625,-0.9950408935546875,0.0219573974609375,0.011322021484375
1772457090129670400,9.53467041015625,-0.9937896728515625,0.02252197265625,0.0135650634765625
1772457090139688400,9.5446884765625,-0.9962310791015625,0.0230255126953125,0.013916015625
1772457090149707500,9.55470751953125,-0.9953765869140625,0.0222625732421875,0.0118255615234375
1772457090159725300,9.564725341796875,-0.99493408203125,0.02471923828125,0.0129547119140625
1772457090169744400,9.574744384765625,-0.9957275390625,0.022979736328125,0.015045166015625
1772457090179762400,9.584762451171875,-0.9964447021484375,0.0228729248046875,0.0136260986328125
1772457090189781500,9.594781494140625,-0.994384765625,0.023101806640625,0.012542724609375
1772457090199799600,9.604799560546875,-0.9954071044921875,0.0234222412109375,0.012969970703125
1772457090209818400,9.614818359375,-0.9947052001953125,0.02288818359375,0.0146484375
1772457090219836400,9.62483642578125,-0.9954376220703125,0.02276611328125,0.01312255859375
1772457090229855500,9.63485546875,-0.99517822265625,0.022491455078125,0.0119171142578125
1772457090239873500,9.64487353515625,-0.995208740234375,0.022308349609375,0.0119476318359375
1772457090249891600,9.6548916015625,-0.9957427978515625,0.0242919921875,0.0134429931640625
1772457090259910700,9.66491064453125,-0.9960174560546875,0.02239990234375,0.0133514404296875
1772457090269928400,9.674928466796874,-0.99298095703125,0.0226593017578125,0.0143280029296875
1772457090279947500,9.684947509765625,-0.994415283203125,0.0225067138671875,0.01409912109375
1772457090289965300,9.69496533203125,-0.9945526123046875,0.02313232421875,0.01287841796875
1772457090299984400,9.704984375,-0.99609375,0.0216064453125,0.0131683349609375
1772457090310002700,9.715002685546875,-0.995361328125,0.0228424072265625,0.01251220703125
1772457090320021500,9.725021484375,-0.995147705078125,0.023651123046875,0.01263427734375
1772457090330039600,9.73503955078125,-0.99627685546875,0.021759033203125,0.0127410888671875
1772457090340058600,9.74505859375,-0.9962921142578125,0.0228118896484375,0.014190673828125
1772457090350076400,9.755076416015624,-0.9952392578125,0.022735595703125,0.0137176513671875
1772457090360095500,9.765095458984375,-0.9952392578125,0.0219879150390625,0.011566162109375
1772457090370113300,9.77511328125,-0.995635986328125,0.0233306884765625,0.012847900390625
1772457090380131600,9.785131591796874,-0.996246337890625,0.0216217041015625,0.014923095703125
1772457090390150700,9.795150634765625,-0.9949798583984375,0.0233306884765625,0.01348876953125
1772457090400168400,9.80516845703125,-0.995361328125,0.0239105224609375,0.012359619140625
1772457090410187500,9.8151875,-0.99530029296875,0.021881103515625,0.013580322265625
1772457090420205600,9.82520556640625,-0.99468994140625,0.022491455078125,0.0127410888671875
1772457090430224400,9.835224365234374,-0.995269775390625,0.0231781005859375,0.01263427734375
1772457090440242400,9.845242431640624,-0.9949798583984375,0.022674560546875,0.013397216796875
1772457090450261500,9.855261474609375,-0.9948272705078125,0.02294921875,0.011932373046875
1772457090460279600,9.865279541015624,-0.996856689453125,0.02325439453125,0.0130157470703125
1772457090470298600,9.875298583984375,-0.996246337890625,0.021881103515625,0.014862060546875
1772457090480316400,9.88531640625,-0.9957122802734375,0.0223236083984375,0.0117340087890625
1772457090490335500,9.89533544921875,-0.9952239990234375,0.023162841796875,0.0117340087890625
1772457090500353500,9.905353515625,-0.9961395263671875,0.02215576171875,0.01177978515625
1772457090510371300,9.915371337890624,-0.9940643310546875,0.02227783203125,0.0131072998046875
1772457090520390400,9.925390380859374,-0.995361328125,0.024444580078125,0.01220703125
1772457090530408400,9.935408447265624,-0.9953765869140625,0.0242767333984375,0.01190185546875
1772457090540427500,9.945427490234374,-0.9960174560546875,0.02337646484375,0.0125885009765625
1772457090550445600,9.955445556640624,-0.9959259033203125,0.0214080810546875,0.0123443603515625
1772457090560464400,9.96546435546875,-0.9951171875,0.0211029052734375,0.0106353759765625
1772457090570482400,9.975482421875,-0.9956512451171875,0.021270751953125,0.01214599609375
1772457090580501500,9.98550146484375,-0.99542236328125,0.02178955078125,0.0139617919921875
1772457090590519600,9.99551953125,-0.9952545166015625,0.02227783203125,0.014404296875
1772457090600538400,10.005538330078124,-0.99432373046875,0.0228729248046875,0.0130767822265625
1772457090610556400,10.015556396484374,-0.994598388671875,0.0225982666015625,0.0130157470703125
1772457090620574500,10.025574462890624,-0.994903564453125,0.0227813720703125,0.0126495361328125
1772457090630593500,10.035593505859374,-0.9947662353515625,0.023223876953125,0.0111846923828125
1772457090640611300,10.045611328125,-0.9946441650390625,0.0214996337890625,0.0117340087890625
1772457090650630400,10.05563037109375,-0.9947357177734375,0.0228118896484375,0.015472412109375
1772457090660648700,10.065648681640624,-0.994110107421875,0.022552490234375,0.013153076171875
1772457090670667500,10.07566748046875,-0.9954681396484375,0.0233917236328125,0.0129547119140625
1772457090680685600,10.085685546875,-0.9961700439453125,0.023193359375,0.0155792236328125
1772457090690704600,10.09570458984375,-0.9958648681640625,0.0232391357421875,0.012420654296875
1772457090700722400,10.105722412109374,-0.9953155517578125,0.024169921875,0.01220703125
1772457090710741500,10.115741455078124,-0.9955291748046875,0.02166748046875,0.01373291015625
1772457090720759300,10.12575927734375,-0.9967498779296875,0.020965576171875,0.0134124755859375
1772457090730778400,10.1357783203125,-0.9955902099609375,0.02325439453125,0.011077880859375
1772457090740796700,10.145796630859374,-0.9969635009765625,0.0229949951171875,0.013885498046875
1772457090750814500,10.155814453125,-0.9980621337890625,0.022552490234375,0.012451171875
1772457090760833800,10.165833740234374,-0.9940338134765625,0.0233001708984375,0.0127410888671875
1772457090770851800,10.175851806640624,-0.9953765869140625,0.021697998046875,0.012542724609375
1772457090780871000,10.185870849609374,-0.996185302734375,0.0225830078125,0.0135955810546875
1772457090790888700,10.195888671875,-0.9940185546875,0.021514892578125,0.014373779296875
1772457090800907800,10.20590771484375,-0.9953155517578125,0.0221099853515625,0.0138092041015625
1772457090810925800,10.21592578125,-0.996307373046875,0.0209503173828125,0.0128631591796875
1772457090820945000,10.22594482421875,-0.9954833984375,0.021453857421875,0.014556884765625
1772457090830963000,10.235962890625,-0.99560546875,0.0224609375,0.0146331787109375
1772457090840981800,10.245981689453124,-0.9942779541015625,0.023040771484375,0.0124969482421875
1772457090850999800,10.255999755859374,-0.9952545166015625,0.021728515625,0.013336181640625
1772457090861019000,10.266018798828124,-0.9945068359375,0.0242156982421875,0.0142974853515625
1772457090871036700,10.27603662109375,-0.99615478515625,0.0241851806640625,0.0128021240234375
1772457090881055000,10.286054931640624,-0.9955902099609375,0.023468017578125,0.010467529296875
1772457090891073800,10.29607373046875,-0.996063232421875,0.0228729248046875,0.01239013671875
1772457090901091800,10.306091796875,-0.99688720703125,0.0200958251953125,0.013427734375
1772457090911111000,10.31611083984375,-0.996063232421875,0.0206451416015625,0.012939453125
1772457090921128700,10.326128662109374,-0.9951324462890625,0.022674560546875,0.0128173828125
1772457090931147800,10.336147705078124,-0.995361328125,0.022552490234375,0.0124969482421875
1772457090941165800,10.346165771484374,-0.9957733154296875,0.0234375,0.01318359375
1772457090951184600,10.3561845703125,-0.99310302734375,0.024566650390625,0.01361083984375
1772457090961203000,10.366202880859374,-0.9949951171875,0.0239105224609375,0.0131683349609375
1772457090971220700,10.376220703125,-0.9949188232421875,0.0227813720703125,0.01385498046875
1772457090981239800,10.38623974609375,-0.99517822265625,0.0207672119140625,0.0116729736328125
1772457090991257900,10.3962578125,-0.995330810546875,0.0211334228515625,0.01318359375
1772457091001276700,10.406276611328124,-0.9971771240234375,0.022369384765625,0.0136566162109375
1772457091011294700,10.416294677734374,-0.996063232421875,0.022216796875,0.0149078369140625
1772457091021313800,10.426313720703124,-0.9947052001953125,0.0235443115234375,0.01239013671875
1772457091031331800,10.436331787109374,-0.9960174560546875,0.0237274169921875,0.0149383544921875
1772457091041351000,10.446350830078124,-0.9963836669921875,0.0212554931640625,0.0124053955078125
1772457091051368700,10.45636865234375,-0.9922637939453125,0.0228424072265625,0.013885498046875
1772457091061386800,10.46638671875,-0.9956207275390625,0.0223388671875,0.0142822265625
1772457091071405800,10.47640576171875,-0.9969329833984375,0.021240234375,0.0146331787109375
1772457091081424000,10.486423828125,-0.995330810546875,0.02117919921875,0.01434326171875
1772457091091443000,10.49644287109375,-0.9940185546875,0.0223388671875,0.01251220703125
1772457091101460700,10.506460693359376,-0.996429443359375,0.022735595703125,0.012054443359375
1772457091111479800,10.516479736328124,-0.994537353515625,0.023040771484375,0.012237548828125
1772457091121497900,10.526497802734376,-0.994964599609375,0.022918701171875,0.014007568359375
1772457091131516700,10.5365166015625,-0.9963226318359375,0.0235137939453125,0.0132904052734375
1772457091141534700,10.54653466796875,-0.9961395263671875,0.0233001708984375,0.01214599609375
1772457091151553800,10.5565537109375,-0.9956512451171875,0.02197265625,0.013031005859375
1772457091161571800,10.56657177734375,-0.9964599609375,0.0222015380859375,0.014617919921875
1772457091171591000,10.5765908203125,-0.995269775390625,0.022003173828125,0.0131988525390625
1772457091181609000,10.58660888671875,-0.9962921142578125,0.022674560546875,0.0131988525390625
1772457091191626800,10.596626708984376,-0.9950408935546875,0.0230255126953125,0.0138397216796875
1772457091201645800,10.606645751953126,-0.993377685546875,0.023406982421875,0.01318359375
1772457091211663600,10.61666357421875,-0.9947357177734375,0.02252197265625,0.0130157470703125
1772457091221682700,10.6266826171875,-0.995147705078125,0.0213470458984375,0.0122528076171875
1772457091231701000,10.636700927734376,-0.9957427978515625,0.022857666015625,0.014373779296875
1772457091241719800,10.6467197265625,-0.996246337890625,0.0222625732421875,0.0145263671875
1772457091251737900,10.65673779296875,-0.9954376220703125,0.022308349609375,0.0115509033203125
1772457091261757000,10.6667568359375,-0.9954376220703125,0.0223236083984375,0.012542724609375
1772457091271774700,10.676774658203126,-0.995452880859375,0.0223236083984375,0.012939453125
1772457091281793800,10.686793701171876,-0.9939727783203125,0.0219268798828125,0.0124359130859375
1772457091291811600,10.6968115234375,-0.9946136474609375,0.02392578125,0.0132293701171875
1772457091301830000,10.706829833984376,-0.9962921142578125,0.023040771484375,0.0136871337890625
1772457091311849700,10.716849609375,-0.9962310791015625,0.0224151611328125,0.0149383544921875
1772457091321867800,10.72686767578125,-0.995208740234375,0.02117919921875,0.012847900390625
1772457091331886800,10.736886962890624,-0.995635986328125,0.022064208984375,0.011810302734375
1772457091341905000,10.74690478515625,-0.9941864013671875,0.0211029052734375,0.014129638671875
1772457091351923700,10.756923828125,-0.9947509765625,0.0208740234375,0.0147247314453125
1772457091361941800,10.766941650390624,-0.99627685546875,0.022369384765625,0.0119781494140625
1772457091371960800,10.7769609375,-0.9958953857421875,0.0245361328125,0.011627197265625
1772457091381978600,10.786978515625,-0.9948883056640625,0.023712158203125,0.0138702392578125
1772457091391997700,10.796997802734374,-0.994842529296875,0.02264404296875,0.014251708984375
1772457091402016000,10.80701611328125,-0.9954071044921875,0.023345947265625,0.012664794921875
1772457091412033800,10.81703369140625,-0.9971923828125,0.0225067138671875,0.0115966796875
1772457091422052900,10.827052978515624,-0.9978179931640625,0.0211181640625,0.0149078369140625
1772457091432070700,10.837070556640626,-0.995086669921875,0.0219268798828125,0.0124664306640625
1772457091442089700,10.84708984375,-0.995513916015625,0.0228424072265625,0.0122222900390625
1772457091452108000,10.85710791015625,-0.9955596923828125,0.0227508544921875,0.0125579833984375
1772457091462126800,10.867126953125,-0.9952392578125,0.02447509765625,0.0130767822265625
1772457091472145000,10.877144775390626,-0.9937896728515625,0.0230560302734375,0.0139312744140625
1772457091482164000,10.8871640625,-0.9940948486328125,0.0239105224609375,0.0142822265625
1772457091492181800,10.897181640625,-0.9959564208984375,0.0222320556640625,0.011932373046875
1772457091502200800,10.907200927734374,-0.99737548828125,0.0218658447265625,0.013092041015625
1772457091512218600,10.917218505859376,-0.996551513671875,0.0222320556640625,0.0145111083984375
1772457091522237000,10.92723681640625,-0.9936065673828125,0.0230865478515625,0.01385498046875
1772457091532256000,10.937256103515624,-0.9952239990234375,0.02276611328125,0.0128936767578125
1772457091542273800,10.947273681640626,-0.9958953857421875,0.0232696533203125,0.013763427734375
1772457091552292900,10.95729296875,-0.9941253662109375,0.0232391357421875,0.0150909423828125
1772457091562310700,10.967310546875,-0.9953155517578125,0.0228271484375,0.0129852294921875
1772457091572329700,10.977329833984374,-0.9958953857421875,0.0222625732421875,0.013763427734375
1772457091582347800,10.98734765625,-0.9941558837890625,0.0237274169921875,0.012420654296875
1772457091592366600,10.99736669921875,-0.996490478515625,0.0219268798828125,0.0115966796875
1772457091602385000,11.007385009765626,-0.9958648681640625,0.0230255126953125,0.012298583984375
1772457091612404000,11.017404052734374,-0.993804931640625,0.0225372314453125,0.01556396484375
1772457091622421800,11.027421875,-0.994171142578125,0.0235748291015625,0.0131072998046875
1772457091632440800,11.03744091796875,-0.9954071044921875,0.02410888671875,0.0133056640625
1772457091642459000,11.047458984375,-0.9941253662109375,0.023406982421875,0.012359619140625
1772457091652476700,11.0574765625,-0.995208740234375,0.021942138671875,0.0131988525390625
1772457091662495700,11.067495849609376,-1.0008392333984375,0.0239410400390625,0.0133819580078125
1772457091672513800,11.077513671875,-1.0590667724609375,0.038177490234375,0.0150604248046875
1772457091682532900,11.087532958984376,-1.024871826171875,0.02484130859375,0.0159912109375
1772457091692551000,11.097551025390626,-0.9717254638671875,0.012542724609375,0.011993408203125
1772457091702569700,11.10756982421875,-0.8984527587890625,0.0005645751953125,0.010955810546875
1772457091712587800,11.117587890625,-0.9106292724609375,0.000396728515625,0.0149688720703125
1772457091722606800,11.12760693359375,-0.9482879638671875,0.005462646484375,0.0113983154296875
1772457091732625000,11.137625,-1.064605712890625,0.034210205078125,0.0150909423828125
1772457091742643700,11.147643798828126,-1.169189453125,0.069122314453125,0.01239013671875
