time,seconds_elapsed,z,y,x
1772457080670975000,0.07597509765625,-0.5545441000521183,0.14125300257839263,0.010060735966358333
1772457080680992800,0.08599267578125,0.26851474307477474,-0.07574603626001626,-0.001044321421161294
1772457080691011800,0.09601171875,0.4571259283512831,-0.1339963459810242,0.005203897919179871
1772457080701030000,0.10602978515625,-0.12893734555840491,0.038392530225776135,-0.0018546240238938479
1772457080711049000,0.116049072265625,-0.24515607931911945,0.0732049552087672,0.006258028348302468
1772457080721067000,0.12606689453125,0.16928163090646267,-0.05025353881344199,0.0027941150974016634
1772457080731086000,0.136086181640625,0.24810265416502952,-0.07311404378861189,0.007520239436998963
1772457080741103900,0.146103759765625,-0.06833294699192047,-0.00014183788979426026,0.009743148784013464
1772457080751122400,0.156122314453125,-0.11080956819355488,0.012679229635372756,-0.00538227756023407
1772457080761140500,0.166140380859375,0.11750234383046626,-0.04609042778462171,-0.0025034067888278513
1772457080771159600,0.17615966796875,0.14352876549065113,-0.015916896382346748,-0.002651263427454978
1772457080781177600,0.186177490234375,-0.04693301608860492,0.03923511852975935,0.001172386513929814
1772457080791196700,0.19619677734375,-0.02567395496070385,0.016844550887588412,0.002824354972038418
1772457080801214500,0.20621435546875,0.12933189783394336,-0.024941055842582136,-0.02213539643785916
1772457080811233500,0.216233642578125,0.08099427564442158,-0.02235251892041415,0.015868161869794128
1772457080821251600,0.22625146484375,-0.018799977537989614,0.00021081147277727722,-0.0007607735057361424
1772457080831270400,0.2362705078125,0.005591536396741867,-0.009641871233470737,-0.0037323183961212635
1772457080841288400,0.246288330078125,0.06858136879503726,-0.017600483821425587,0.015275283143715932
1772457080851307500,0.2563076171875,0.0431435606777668,-0.019959522836655377,0.017952311200089752
1772457080861325600,0.26632568359375,0.041350247520208355,-0.011465451665129512,-0.0015129527130629866
1772457080871344600,0.2763447265625,0.043889995130896566,-0.016575488155242055,-0.010322994498582556
1772457080881362700,0.28636279296875,0.058549219602346415,-0.019196045917179435,0.01633399841641076
1772457080891381500,0.296381591796875,0.06797580411732196,0.0035566513019613917,0.023159981112089008
1772457080901399600,0.306399658203125,0.018303718453645704,-0.007828994858916848,-0.0015219762697350234
1772457080911418600,0.316418701171875,0.017703998994827268,-0.017312186665646732,-0.007315410180436447
1772457080921436700,0.326436767578125,0.07710778959989548,-0.030707948806229977,0.008507396443979813
1772457080931455500,0.33645556640625,0.06289163272082805,-0.029395368370320647,0.0034566615262068808
1772457080941473500,0.3464736328125,0.014710077875852583,-0.001659969101473689,0.003343520007934421
1772457080951492600,0.35649267578125,0.04268880264759063,0.008374463379848748,0.0034888010969851163
1772457080961510700,0.3665107421875,0.06603226883411407,-0.008132306920737027,0.0029778559001628307
1772457080971529500,0.376529541015625,0.039099838244915,-0.011133260568697005,0.015148807219834998
1772457080981547500,0.386547607421875,0.02892857284247875,-0.016431969765014945,0.00239700553859584
1772457080991566600,0.396566650390625,0.03955225818753242,-0.03221908402154222,-0.006618915816256776
1772457081001584600,0.406584716796875,0.03790799811184406,-0.015125545075256376,-0.01643138524312526
1772457081011603700,0.416603759765625,0.02578676768541336,0.006128803344909102,0.005944395821867511
1772457081021621500,0.42662158203125,0.043592473489046095,-0.010915343501698226,-0.0077523402929771685
1772457081031640600,0.436640625,0.04074935901761055,-0.0061522755520418285,0.017264593797409907
1772457081041658600,0.44665869140625,0.056308162677288054,-0.00908993643913418,0.03511890624943189
1772457081051677400,0.456677490234375,0.058256958657503126,0.0028472243909724057,0.009137200513808057
1772457081061695500,0.466695556640625,0.03162029614448547,-0.012271945742424576,-0.006651101052807643
1772457081071714600,0.476714599609375,0.03341594738960266,-0.024197160406410692,0.011090837065922095
1772457081081732600,0.486732666015625,0.04389584034979343,-0.024864045083615928,0.017166951242368667
1772457081091751700,0.496751708984375,0.042245735055208206,-0.006997640335001051,-0.0030004969902336595
1772457081101769500,0.50676953125,0.04403846369087696,-0.019281294781528412,-0.012202935626823454
1772457081111788500,0.51678857421875,0.04672901794910431,-0.022360135971289125,-0.006153334997966885
1772457081121806600,0.526806640625,0.03939268371164799,-0.005356905656959861,0.010088171962555497
1772457081131825400,0.536825439453125,0.043429976403713225,-0.0073271097513847045,0.004397029382549226
1772457081141843500,0.546843505859375,0.04387713564932346,-0.02625312482183799,-0.00010809088381938636
1772457081151862500,0.556862548828125,0.03774667007029056,-0.02350435583665967,0.009897636092826723
1772457081161880600,0.566880615234375,0.04762392096221447,-0.02145102176973596,0.01799784910855815
1772457081171899600,0.576899658203125,0.03146305975615978,-0.015176069686096161,-0.006348894102685153
1772457081181917700,0.586917724609375,0.03027180414497852,-0.028631160798482595,-0.013103957853466271
1772457081191936500,0.5969365234375,0.03640577685534954,-0.0012452142881229518,0.017037863236293197
1772457081201954600,0.60695458984375,0.0519710102558136,-0.01595923768673092,-0.0003052756900433451
1772457081211973600,0.6169736328125,0.04299275403022766,-0.018057050216197967,-0.005080673398310319
1772457081221991400,0.626991455078125,0.0425467638283968,-0.014425507047120482,0.007945533910673111
1772457081232010500,0.637010498046875,0.04643851056993007,-0.00931839316645637,0.01745047175833024
1772457081242028500,0.647028564453125,0.03207856130599975,-0.008187946098111569,-0.0011587050484493373
1772457081252047600,0.657047607421875,0.03178220870792865,-0.012562690583616495,0.002471175886504352
1772457081262065700,0.667065673828125,0.0308913973480463,0.002179335066769272,-0.006856998888449743
1772457081272084500,0.67708447265625,0.04765256253480911,-0.011793770304042845,0.003259193592192605
1772457081282102500,0.6871025390625,0.03867489083111286,-0.007859901453834027,0.004133163415128365
1772457081292121600,0.69712158203125,0.035083588340878484,0.005768993589188903,-0.0051774574368260795
1772457081302139600,0.7071396484375,0.039271687680482864,0.006970368735585361,0.011447468483867122
1772457081312158500,0.717158447265625,0.04331424106955528,0.001093859651312232,0.0030441717351786792
1772457081322176500,0.727176513671875,0.011291209343075752,-0.019599950542952865,0.010554757427843287
1772457081332195600,0.737195556640625,0.049746904465556144,-0.029835842146817594,0.006990626072324812
1772457081342213600,0.747213623046875,0.0385205770522356,-0.03402702849265188,0.010746955531695856
1772457081352232400,0.757232421875,0.028049451920390128,-0.037185401192028074,0.009587191037321462
1772457081362250500,0.76725048828125,0.04630465505719185,-0.007879738665465265,-0.006897111703129485
1772457081372269600,0.77726953125,0.04061842611432075,0.010566329134628176,0.00424769317288883
1772457081382287600,0.78728759765625,0.04555179086327552,-0.0036174781111069023,0.010392917929636314
1772457081392306700,0.797306640625,0.0817687671482563,0.0029875461771152914,0.010142715161386876
1772457081402324700,0.80732470703125,0.03164133893251419,-0.018422376397252083,-0.013364143159613012
1772457081412343600,0.817343505859375,0.026104747593402863,-0.014670549583062529,0.0017469258657190948
1772457081422361600,0.827361572265625,0.0440671052634716,-0.018347466263826936,0.0116803913237527
1772457081432380700,0.837380615234375,0.0006757073044776916,-0.01815342326276004,0.006299319339916109
1772457081442398500,0.8473984375,0.02910626749694347,-0.008940645895246416,-0.007836246583610772
1772457081452417500,0.85741748046875,0.08282090654969215,0.003263933699391782,-0.00901558342813514
1772457081462435600,0.867435546875,0.048853170496225354,-0.01312682727240026,0.009098421139689162
1772457081472454700,0.87745458984375,0.02775134575664997,-0.00007675503063946962,0.012505909761926158
1772457081482472700,0.88747265625,0.03912438816428184,-0.0008108414588496089,-0.00945948213757947
1772457081492491500,0.897491455078125,0.01907470282614231,-0.01051761288838461,-0.0014531214177608488
1772457081502509600,0.907509521484375,0.015933482190966606,-0.03830096121849492,0.0054344096062704916
1772457081512528600,0.917528564453125,0.0421194783270359,-0.0335799240459688,-0.002716866876417771
1772457081522546400,0.92754638671875,0.041670565515756604,-0.02572952107284218,-0.010141527851298451
1772457081532565500,0.9375654296875,0.030445407146215436,-0.00782300350954756,0.009216987751750274
1772457081542583600,0.94758349609375,0.04810264438986778,0.006261635944340377,0.007657565548457205
1772457081552602600,0.9576025390625,0.038671968221664424,0.02294741607364267,-0.012644879841199145
1772457081562620700,0.96762060546875,0.029693127474188803,-0.01011816524202004,-0.012416532711731269
1772457081572639500,0.977639404296875,0.046153848409652705,-0.025675105738174168,0.00003350954395718872
1772457081582657500,0.987657470703125,0.0207177938580513,-0.030974673451017586,0.011896271697292104
1772457081592676600,0.997676513671875,0.022366145586967468,-0.03332631461108103,0.0005883395482785999
1772457081602694400,1.0076943359375,0.019374562555551526,-0.03273815772589296,-0.006322380555095151
1772457081612713500,1.01771337890625,0.04451426450908184,-0.01152025059228763,0.01262433024351485
1772457081622731500,1.0277314453125,0.044811201629042625,-0.002476948040165007,-0.006666106825694441
1772457081632750600,1.03775048828125,0.06471241840720177,-0.01542355990745127,-0.017672864071046932
1772457081642768600,1.0477685546875,0.04241524640321731,-0.005696257146541029,0.0024701803726609795
1772457081652787500,1.057787353515625,0.02461246320903301,-0.011055647021532057,0.005140888286102563
1772457081662805500,1.067805419921875,0.04077800059020519,-0.011331376956682652,0.006836294027138501
1772457081672824600,1.077824462890625,0.021927754169702527,-0.0210303669385612,-0.00802900180988945
1772457081682842400,1.08784228515625,0.03599485796689987,-0.030396873563062397,-0.00023904205341823397
1772457081692861400,1.097861328125,0.0490256044536829,-0.02356046993806958,-0.00809488838664256
1772457081702879700,1.107879638671875,0.0603495470225811,0.005854388584010303,0.009616325800260528
1772457081712898600,1.117898681640625,-0.12035773326158523,0.04864024013159796,0.043475550844799725
1772457081722916600,1.12791650390625,0.24305413860380648,-0.05538052643835544,-0.00393296466791071
1772457081732935700,1.137935791015625,0.24300270067751406,-0.05754227104950696,-0.0038997199854347853
1772457081742954000,1.1479541015625,-0.06223404559493065,0.013385624339058995,0.0015444712293334305
1772457081752973000,1.15797314453125,-0.13781447949707507,-0.006932831470482051,0.011418863443890585
1772457081762990800,1.167990966796875,0.16960253342390058,-0.1136020119236782,0.019873616385180502
1772457081773010000,1.178010009765625,0.21132395234405993,-0.0816628590883687,-0.0026805351877119393
1772457081783028200,1.1880283203125,-0.12904489758610724,0.04033475033473223,0.01025952820777893
1772457081793047000,1.198047119140625,-0.09537351413071155,0.054542413380090145,0.008575758105609566
1772457081803065000,1.208065185546875,0.2251075630247593,-0.015894173093885182,-0.0058220024180598556
1772457081813084200,1.218084228515625,0.12110942841172218,-0.01423350987266749,0.001810857947403565
1772457081823102000,1.22810205078125,-0.08461538875102996,-0.0015864472075365482,0.01806155286137946
1772457081833121000,1.23812109375,0.004411971223354339,-0.05117701033391058,0.007008298726333305
1772457081843139000,1.24813916015625,0.12768939132392407,-0.0693923563843593,0.0013574059583246708
1772457081853158000,1.258157958984375,0.035215105766057964,-0.030297559640742835,0.012180267137289046
1772457081863176200,1.26817626953125,-0.029564532658457755,0.012333320540841668,0.002879637956386432
1772457081873195300,1.2781953125,0.04150573034286499,0.025415048296190797,-0.021842989362543447
1772457081883213000,1.288213134765625,0.10629179850816727,-0.0055269649942405515,-0.0012470135195646434
1772457081893232000,1.298232177734375,0.07412263630926609,-0.01277686305725947,0.027236345439217984
1772457081903250000,1.30825,0.014873159483075141,-0.01964298596708104,-0.016787715266970916
1772457081913269000,1.31826904296875,0.03282733384668827,-0.025997232098318637,-0.009791417505685239
1772457081923287000,1.328287109375,0.03716156365871429,-0.03517557747326791,0.014269795895600691
1772457081933305900,1.338305908203125,0.017111878320574758,-0.032717754258681085,0.016080251984205096
1772457081943324200,1.34832421875,0.008584872993826865,-0.018984357661567627,-0.008958683875435964
1772457081953343200,1.35834326171875,0.049430093601346016,-0.010413257464766502,-0.01194208360039629
1772457081963361000,1.368361083984375,0.08219780621528625,0.009545571252144872,0.01332766534043476
1772457081973380000,1.378380126953125,0.03895663038194179,0.028528358011133965,0.007106480137491598
1772457081983398000,1.38839794921875,0.008284428742527961,-0.006493672868236899,-0.013533480977686122
1772457081993417000,1.3984169921875,0.03012976532578468,-0.022827369890548288,0.007020171827217564
1772457082003435000,1.40843505859375,0.021449030742049215,-0.04507748788241297,0.015132878998341037
1772457082013454000,1.4184541015625,0.025941081464290618,-0.03807314381198958,-0.005362778275320306
1772457082023472000,1.42847216796875,0.012173837396502494,-0.03340635757734999,-0.013217912222491577
1772457082033491200,1.4384912109375,0.05167699574530124,-0.007539711322449147,0.007811395270144566
1772457082043509000,1.448509033203125,0.07232756958603859,0.00789995946958661,0.014688715427415445
1772457082053528000,1.458528076171875,0.044943888098001476,0.02122811800036579,0.00404685510485433
1772457082063545900,1.4685458984375,0.039110359638929365,-0.00874826512830332,0.0002857033398933708
1772457082073565000,1.47856494140625,0.05856266360580921,-0.024991616986040025,0.01879545662649907
1772457082083583200,1.488583251953125,0.04344751206040382,-0.040557544506248086,0.020198272629128766
1772457082093602000,1.49860205078125,0.0015530746608972549,-0.03684931937176734,-0.004086703058052808
1772457082103620000,1.5086201171875,0.01008475616276264,-0.04848747898899018,0.020535724422568454
1772457082113639200,1.51863916015625,0.03971300170719623,-0.02501675142729655,0.009509604889620094
1772457082123657000,1.528656982421875,0.06484802748560906,-0.016328892983030526,-0.0032290085164830085
1772457082133676000,1.538676025390625,0.04420154529809951,-0.003070256024505943,0.014792869921633972
1772457082143694000,1.548694091796875,0.05258475823998451,-0.0022095658082515,0.00004479812295176089
1772457082153713000,1.558712890625,0.04106383179426193,-0.010812668578512966,0.00374755249787122
1772457082163731200,1.568731201171875,0.022213000851869582,-0.009359181834571063,0.015347763858037069
1772457082173750300,1.578750244140625,0.028501871863007545,-0.02381168648647144,0.003250571894319728
1772457082183768000,1.58876806640625,0.04017243591248989,-0.040540319376811386,0.013273578799329697
1772457082193787100,1.598787109375,0.0504939234405756,-0.043935222512111065,0.008860867790458724
1772457082203805000,1.608804931640625,0.05650456203222275,-0.013229100336786358,-0.01497535948222503
1772457082213824000,1.618823974609375,0.07252864511609076,0.04850000967700034,-0.013927868856443091
1772457082223842000,1.628842041015625,-0.2536374919384718,0.08779186336267739,0.02999924341444857
1772457082233860900,1.63886083984375,0.30840543943643567,-0.08498564683552831,0.0006424626220017672
1772457082243879200,1.648879150390625,0.3505114737600088,-0.1251942317736335,-0.01256583238877356
1772457082253898200,1.658898193359375,-0.19517536609768865,0.029850235998351127,-0.006178588170232251
1772457082263916000,1.668916015625,-0.24560148499906062,-0.010127371461782603,0.0018257449892815202
1772457082273935000,1.67893505859375,0.20071254195868968,-0.10023927526986226,0.0027282193874940274
1772457082283953000,1.688952880859375,0.1805038666665554,-0.016079210804589093,-0.006532872367464006
1772457082293972000,1.698971923828125,-0.10003040002584457,0.06470971499346197,0.011272568574687466
1772457082303990000,1.708989990234375,-0.01848082858622074,0.061274151054210954,0.01908141569471918
1772457082314008800,1.7190087890625,0.17782091119289398,-0.004805610183440149,-0.0020455982850398867
1772457082324027100,1.729027099609375,0.04225684097111225,-0.027107750623486936,-0.006510660535655915
1772457082334046200,1.739046142578125,-0.06202770936787128,-0.04278851842870936,-0.00042628998751752077
1772457082344064000,1.74906396484375,0.06021686055362224,-0.061313971607945855,0.00875276777348481
1772457082354083000,1.7590830078125,0.07486907076239585,-0.044270409283228215,0.0031681086421012877
1772457082364101000,1.76910107421875,-0.011913140633702277,0.02874178156610578,-0.009209178904630242
1772457082374120000,1.779119873046875,0.03448620696961879,0.031083485854044555,0.02609708487675525
1772457082384138000,1.789137939453125,0.08595862005352974,0.03204159029647708,0.00716765400650911
1772457082394157000,1.799156982421875,0.0843044231057167,-0.013481960853002965,0.0023831870757974683
1772457082404175000,1.809175048828125,0.0772720402508974,-0.020437296416237948,0.0015519878155086189
1772457082414194200,1.819194091796875,0.008892916029691696,-0.022105266161076723,-0.014619970173295586
1772457082424212000,1.8292119140625,-0.00442892235815525,-0.037257516580168154,0.012352207904402166
1772457082434231000,1.83923095703125,0.03641279111802578,-0.051817902053333816,0.005254038937529549
1772457082444249000,1.8492490234375,0.04254793287217617,-0.029523780522961167,0.013504145285347475
1772457082454268000,1.859267822265625,0.0516746576577425,-0.012833726077340542,0.010555314550269394
1772457082464286200,1.8692861328125,0.0771066205561161,0.002324460892193019,0.0069211136332247404
1772457082474305300,1.87930517578125,0.0926695158690214,0.022584336648602037,-0.004365063341706991
1772457082484323000,1.889322998046875,0.031922493961453434,0.023097218074183908,0.007351796668069436
1772457082494342100,1.899342041015625,0.018756722918152807,-0.019739450345188377,-0.0013439071559347212
1772457082504360000,1.90935986328125,0.054520694738626474,-0.052459341762028634,0.0020397895987611264
1772457082514379000,1.91937890625,0.031626141363382335,-0.057230136360414324,0.004852563730860128
1772457082524397000,1.92939697265625,0.029378070175647735,-0.03611360724205151,0.012766953584598376
1772457082534415000,1.9394150390625,0.037754853376746174,-0.004156151565071195,0.014892905363161115
1772457082544434200,1.94943408203125,0.023090368208289146,0.01649451360721141,0.01102416503787972
1772457082554452000,1.959451904296875,0.05032499661445618,0.025898922822996974,-0.005339342600805684
1772457082564471000,1.969470947265625,0.05631400789618492,0.005930942685250192,-0.007460937864659354
1772457082574489000,1.979489013671875,0.042700493085384365,-0.023753088167030364,-0.007996560845011845
1772457082584508000,1.9895078125,0.0382113649725914,-0.04695128239765763,-0.004374287827778607
1772457082594526000,1.99952587890625,0.03342413069605827,-0.039965149837359784,0.0028627050878945737
1772457082604545000,2.009544921875,0.010381693282723425,-0.021047811263706535,0.020227233862131832
1772457082614563000,2.01956298828125,0.02654430805444717,-0.03089430169118568,0.012053334555681795
1772457082624582100,2.02958203125,0.06949322294294834,-0.0016794227206148207,0.002060357462754473
1772457082634600200,2.03960009765625,0.0660486354470253,0.002270429150015116,0.00993663466265425
1772457082644619000,2.049618896484375,0.04884148005843162,0.008868749702814966,0.01103621166869998
1772457082654637000,2.059636962890625,0.054231356403231616,0.008166629315447062,0.008649426130019127
1772457082664656100,2.06965625,0.02715045725405216,-0.016496084509789944,0.012605013621691613
1772457082674674000,2.079673828125,0.019371639946103095,-0.0375106328247115,0.015761294828681275
1772457082684693000,2.08969287109375,0.010241992551088333,-0.05175566873839125,-0.016047089500119908
1772457082694711000,2.0997109375,0.04914660048484802,-0.0321703495089896,-0.008434477338241413
1772457082704730000,2.109730224609375,0.056926586836576455,-0.013976594235841184,0.014154343689233065
1772457082714748200,2.119748046875,0.05019289466738701,0.0210367784130387,0.024195507305441424
1772457082724767000,2.12976708984375,0.05887012211978435,0.030112795924674716,-0.0009946096610743552
1772457082734785000,2.139784912109375,0.034327217015624044,0.00027870734352618455,-0.006432681662309914
1772457082744803600,2.149803466796875,0.030738837134838104,-0.017856595740653573,0.01479370103869587
1772457082754821600,2.159821533203125,0.028344635474681853,-0.04285407621189952,-0.0009070135760121047
1772457082764840700,2.1698408203125,0.02370528523623943,-0.04405481203747913,-0.010345644721807911
1772457082774858500,2.1798583984375,0.019809446841478347,-0.036029399557318535,-0.008302064863918348
1772457082784877600,2.189877685546875,0.03537117311060428,-0.021641977764572946,0.004499119783844798
1772457082794895600,2.1998955078125,0.03956044149398803,0.008873882535658776,0.008949842981854453
1772457082804914400,2.20991455078125,0.05243102898299694,-0.0015898264747112988,-0.0024679062171839177
1772457082814932500,2.219932373046875,0.06934007820785046,-0.005213843924459069,0.009568449804233386
1772457082824951600,2.22995166015625,0.05437690235376358,-0.003420384636428207,0.017263689615111797
1772457082834969600,2.239969482421875,0.03253098124861717,-0.02499380894312635,0.007684188693901524
1772457082844988700,2.24998876953125,0.0344815307945013,-0.033851544061582535,0.027013870928110553
1772457082855006500,2.26000634765625,0.005752864438295364,-0.03532313271779567,0.00826204338078387
1772457082865025500,2.270025634765625,0.03792670281231403,-0.02568241226179525,0.0124462793960236
1772457082875043600,2.280043701171875,0.056775195667147636,-0.005993742255773395,0.0019370233440306037
1772457082885062400,2.2900625,0.06159340960383415,0.02058622163394466,0.0013768961100839078
1772457082895080400,2.30008056640625,0.010787351474165915,0.04989975693970918,0.00011368950754404068
1772457082905099500,2.310099609375,-0.0451782813757658,0.021346136623155324,0.012524048206815495
1772457082915117600,2.32011767578125,0.21438801608979702,-0.0703598131770268,-0.0018131960349623112
1772457082925136600,2.33013671875,0.08030278624892234,-0.048104690216481685,-0.008124890799261628
1772457082935154700,2.34015478515625,-0.1157148758918047,-0.01233461744878441,-0.0075005483558401465
1772457082945173500,2.350173583984375,0.017125906845927238,-0.05308576656468212,0.01481208607875742
1772457082955191600,2.360191650390625,0.15761983468532562,-0.04504725714093074,0.013306467288779093
1772457082965210600,2.370210693359375,-0.017877017474174497,0.02573076318185776,0.016332518845377487
1772457082975228700,2.380228759765625,-0.027296587726473805,0.04215637627132237,0.009872245923243463
1772457082985247500,2.39024755859375,0.1215653554856777,-0.010163228226453064,0.010779022037237882
1772457082995265500,2.400265625,0.10958791744410991,-0.013420786983985453,-0.0012002791678532958
1772457083005284600,2.41028466796875,-0.05470131200253963,-0.024134744428377597,-0.00608015103074722
1772457083015302700,2.420302734375,-0.014448796591162681,-0.047487690829299385,-0.007863527316180988
1772457083025321500,2.430321533203125,0.07487199337184429,-0.0504068296790123,-0.005485957130417227
1772457083035339500,2.440339599609375,0.046587563651800154,-0.028680224104598164,0.007985491461725905
1772457083045358600,2.450358642578125,0.015022797086834907,0.009937018255144358,-0.008974100640276447
1772457083055376600,2.460376708984375,0.07098667637109755,0.023025358414370565,-0.006473899588687345
1772457083065395700,2.470395751953125,0.07487374693751335,0.009366141298320144,0.03222104764976538
1772457083075413500,2.48041357421875,0.042106618845462795,0.003452186280488968,0.006311466435436159
1772457083085431600,2.490431640625,0.03882102130353451,-0.00949133858056739,-0.011119834831543267
1772457083095450600,2.50045068359375,0.030438977405428884,-0.04621295818574726,-0.01610791630926542
1772457083105468400,2.510468505859375,0.022955343651771543,-0.056208337298315016,0.01855953811192885
1772457083115487500,2.520487548828125,0.04255611617863178,-0.03812213405286893,0.012026656611310317
1772457083125505500,2.530505615234375,0.03223287508487701,-0.001956887955125421,0.007311492057144642
1772457083135524600,2.540524658203125,0.04525076209008693,0.005870919593703001,-0.0050947019236627965
1772457083145542700,2.550542724609375,0.06440203728377819,0.006590338175743818,0.005973283989634364
1772457083155561500,2.5605615234375,0.0681441464215517,0.0032065592226572332,0.011202782140951602
1772457083165579500,2.57057958984375,0.021906126859784124,-0.018349566889367997,-0.0016700155714526772
1772457083175598600,2.5805986328125,0.011282441514730453,-0.032677495313528926,-0.0033354554324876514
1772457083185616400,2.590616455078125,0.034924013864994045,-0.04871114994334057,0.013851890143938362
1772457083195635500,2.600635498046875,0.025792612904310223,-0.03641375923240557,-0.0116429271238856
1772457083205653800,2.61065380859375,0.03701543318629265,-0.01152923761634156,-0.014702360360277816
1772457083215672600,2.620672607421875,0.06290156959295272,-0.003065506784152239,-0.010496679698210208
1772457083225690600,2.630690673828125,0.055122167763113974,0.006583141249977052,0.004165165988588705
1772457083235709700,2.640709716796875,0.059015083548426626,0.01820263269934803,0.004167823736555874
1772457083245727500,2.6507275390625,0.05108955124616622,-0.0028145824966952205,-0.01276869801711291
1772457083255746600,2.66074658203125,0.03283434810936451,-0.036768198693264274,0.013292520961817354
1772457083265764400,2.670764404296875,0.025202245795726774,-0.04860480349203571,-0.003500802062032744
1772457083275783400,2.680783447265625,0.031790392014384265,-0.03712720473138615,0.0045662393364589654
1772457083285801700,2.6908017578125,0.039271103158593175,-0.01627937301918864,0.0398417426533997
1772457083295820500,2.700820556640625,0.034032033461332316,0.00006747574564069509,0.015228192598978056
1772457083305838600,2.710838623046875,0.03283376358747482,0.0019481931920163331,-0.00899204728892073
1772457083315857700,2.720857666015625,0.05707271730899811,-0.00013504282282665372,-0.004728416761383414
1772457083325875500,2.73087548828125,0.040164837127923965,-0.004714296904485673,0.018767600505193695
1772457083335894500,2.74089453125,0.05573123957216739,-0.022477789267897605,0.018713861023960634
1772457083345912600,2.75091259765625,0.03807400232851505,-0.03242289949795231,0.013453730272362008
1772457083355931600,2.760931640625,0.023709376889467237,-0.030402864912431684,0.011424370736069977
1772457083365949700,2.77094970703125,0.04256313044130802,-0.030125783270411193,0.019483329292805864
1772457083375968500,2.780968505859375,0.030741759744286536,-0.019481493528746067,0.0029781298947986214
1772457083385986600,2.790986572265625,0.05438508566021919,-0.010502597982343286,0.0010852744860574603
1772457083396005600,2.801005615234375,0.04660509930849075,0.007664652876369655,-0.003733167779492214
1772457083406023400,2.8110234375,0.029247137272357938,0.012662899555079639,0.013984530947124584
1772457083416042500,2.82104248046875,0.03628068917095661,-0.012095328800193966,0.0054900761831086125
1772457083426060800,2.831060791015625,0.020718378379940984,-0.0339006073676981,0.006309128347877412
1772457083436079600,2.84107958984375,0.031042788517475127,-0.038802006075810636,0.019614453992340714
1772457083446097700,2.85109765625,0.03942132528424263,-0.037470081618614495,0.011950312572624534
1772457083456116700,2.86111669921875,0.041516251736879346,0.00114495051773265,-0.006768352490616962
1772457083466134500,2.871134521484375,0.04570376655459404,0.007394055774062871,0.011074342588847503
1772457083476152600,2.881152587890625,0.06306231311261654,0.012903138051740825,0.024648329106857998
1772457083486171400,2.89117138671875,0.05648176567852497,0.004056928974296897,0.012081638201558961
1772457083496190500,2.9011904296875,0.04525602278709411,-0.01669938852954656,-0.013232634867588057
1772457083506208800,2.911208740234375,0.03418342463076114,-0.02314549592901021,0.01779537620586343
1772457083516226600,2.9212265625,0.026850597524642944,-0.031832221862114964,0.01298841431555338
1772457083526245600,2.93124560546875,0.03298632380068302,-0.04007032724488526,-0.006721024483861401
1772457083536263400,2.941263427734375,0.052587096327543256,-0.03071227792147547,-0.005809088137559593
1772457083546282500,2.951282470703125,0.050340194183588025,-0.014835530886426567,0.002486830113362521
1772457083556300500,2.961300537109375,0.04255611617863178,-0.00897389057772234,0.014786431047692894
1772457083566319400,2.9713193359375,0.03806698806583881,-0.0002937953148037195,0.006410259767947718
1772457083576337700,2.981337646484375,0.03836626327335834,0.005640252642985433,-0.008332295605400577
1772457083586356700,2.991356689453125,0.04615034127831459,-0.01404554955251515,0.009146571130352095
1772457083596374500,3.00137451171875,0.03478022148013115,-0.023409626757912336,0.010839693582756445
1772457083606393600,3.0113935546875,0.014728782576322555,-0.03834651739327237,-0.0062730797869618975
1772457083616411400,3.021411376953125,0.021609774261713028,-0.03943429436367005,0.015651085053011774
1772457083626430500,3.031430419921875,0.051692777836322784,-0.006932813204172998,0.007202213863236829
1772457083636448500,3.041448486328125,0.03508125025331974,-0.011151709540840238,0.008612336389487609
1772457083646467300,3.05146728515625,0.050941082686185836,-0.010997140033636242,0.00473699279348366
1772457083656485600,3.061485595703125,0.05902385137677192,-0.027368282989505676,0.013111766700586303
1772457083666504700,3.071504638671875,0.0421153866738081,-0.005800192445050925,-0.0007955890907905995
1772457083676522500,3.0815224609375,0.034037878680229186,-0.02555778123512864,-0.012957580785872414
1772457083686541600,3.09154150390625,0.02446341012716293,-0.0306308101831004,-0.012028583706915378
1772457083696559600,3.1015595703125,0.04093056080341339,-0.029264198005013165,-0.00011103175957687198
1772457083706578400,3.111578369140625,0.039434184765815734,-0.015961009518709032,0.013981233878340571
1772457083716596500,3.121596435546875,0.04841068742573261,-0.028255020962469277,-0.009446330395061523
1772457083726615600,3.131615478515625,0.05604337426126003,0.0018802790549583732,0.01597391466605477
1772457083736633600,3.141633544921875,0.04886661449968815,0.008041687761526554,0.017900791075406593
1772457083746652400,3.15165234375,0.031657705545425414,-0.003962894015293568,0.022549795058183372
1772457083756670500,3.16167041015625,0.029115035325288773,-0.003780450120475143,-0.0061452338899020105
1772457083766689500,3.171689453125,0.03286240516006946,-0.02950759657314047,-0.014202393215196207
1772457083776707300,3.181707275390625,0.015209844091534613,-0.025475126186665146,0.00013413864052854476
1772457083786726400,3.191726318359375,0.05067103357315063,-0.020154278223775326,0.01213172442098148
1772457083796744400,3.201744384765625,0.06159633221328258,-0.015567772417422384,-0.005245819098455831
1772457083806763500,3.211763427734375,0.04019873939752579,-0.010469901289138942,0.0052155426912009716
1772457083816781600,3.221781494140625,0.03002221329808235,-0.003210742207430303,0.007511151948245242
1772457083826800400,3.23180029296875,0.0575567014336586,-0.006689907826390117,-0.007395115219987929
1772457083836818400,3.241818359375,0.04753624267876148,-0.014745203988160937,0.0010507785614114254
1772457083846836200,3.251836181640625,0.012823825737833977,-0.019619879086129367,0.027539072979148475
1772457083856855300,3.261855224609375,0.016715572479367256,-0.032153051314316686,0.009472323352843523
1772457083866873600,3.27187353515625,0.03601414718925953,-0.02451362421074882,-0.0051339105560444295
1772457083876892400,3.281892333984375,0.04858312138319015,-0.010732351617608219,0.003880613426165655
1772457083886910500,3.291910400390625,0.04289747696220875,-0.004608882034942507,0.00963848283314146
1772457083896929500,3.301929443359375,0.05486030195653438,0.002323675440903753,-0.002344745628396049
1772457083906947300,3.311947265625,0.05500526338517665,-0.004237034781556576,0.00010114055322483181
1772457083916966400,3.32196630859375,0.044829906329512594,-0.008810955100972205,0.014904604934109373
1772457083926984400,3.331984375,0.028223054921627043,-0.016147417202591895,0.008862466092500835
1772457083937003300,3.342003173828125,0.028074586361646652,-0.021331560108531267,-0.002349504001904279
1772457083947021600,3.352021484375,0.033164602977037425,-0.021252375658787785,0.0030715163998305795
1772457083957040600,3.36204052734375,0.03705927232801914,-0.009412464658077806,0.009225700781168416
1772457083967058400,3.372058349609375,0.04290039957165718,-0.019441837371792642,0.005285904513671994
1772457083977077500,3.382077392578125,0.0316758257240057,-0.0047047618911601604,0.009053212024783715
1772457083987095300,3.39209521484375,0.04619301137626171,0.0013746128214523195,0.013106953528150915
1772457083997114400,3.4021142578125,0.048586628514528274,-0.006076653032563627,-0.000010119535215198992
1772457084007132400,3.41213232421875,0.043050037175416944,-0.015588175884634256,-0.0013325911774765698
1772457084017151200,3.422151123046875,0.03377835096120834,-0.02475632865913212,0.009100987556111067
1772457084027169500,3.43216943359375,0.03617547523081303,-0.03184551973510533,0.006300643647322431
1772457084037188600,3.442188720703125,0.024800094735622405,-0.00863419202826917,0.021577625557780266
1772457084047206400,3.452206298828125,0.027945407024025915,-0.019608444376662374,0.0003669884151779115
1772457084057225500,3.4622255859375,0.030937574577331543,-0.0040794513333588835,0.012231403669482097
1772457084067243300,3.4722431640625,0.04170797491669655,-0.007344992467947304,0.010968133134860544
1772457084077262300,3.482262451171875,0.03153261786103249,-0.004488854118157178,0.010207852819468826
1772457084087280400,3.4922802734375,0.035273557955026624,-0.028520302568841725,0.018773308726772665
1772457084097299500,3.502299560546875,0.037818566262722016,-0.019769699352979658,0.018889884311147034
1772457084107317500,3.5123173828125,0.0444026208281517,-0.019247575175017118,0.012871482538152486
1772457084117336600,3.522336669921875,0.013725743013620376,-0.009360679671913385,0.008435929509811103
1772457084127354400,3.532354248046875,0.03512684296071529,-0.02090102320415899,0.004241409562574699
1772457084137372400,3.542372314453125,0.047397126469016074,-0.01716479581790045,0.014101572322379796
1772457084147391200,3.55239111328125,0.04096212498545646,-0.0031215478203259405,0.014271083670388906
1772457084157409500,3.562409423828125,0.056069677746295926,-0.010490980609785764,0.000702038188977167
1772457084167428600,3.5724287109375,0.03602291501760482,-0.01228127982635051,-0.001503335501346737
1772457084177446400,3.5824462890625,0.04141220684051514,0.0033880715357139705,0.011371645034989341
1772457084187465500,3.592465576171875,0.02420212884247303,-0.023525453423615544,-0.0008087956322357058
1772457084197483500,3.6024833984375,0.042753684577345845,-0.020364011984318493,-0.0018465046495199202
1772457084207502300,3.61250244140625,0.05472410835623741,-0.023996943392883986,-0.008265678376285359
1772457084217520400,3.622520263671875,0.05816401967704296,-0.02388108019456267,0.003933284328319132
1772457084227539500,3.63253955078125,0.026290041032433507,-0.01746717629795894,0.00464228198104538
1772457084237557500,3.6425576171875,0.040508535999059674,-0.014196940721943973,0.0063935186957009135
1772457084247576600,3.65257666015625,0.06744388919770718,-0.0028937304138205943,0.026811041832389308
1772457084257594400,3.662594482421875,0.03078384532034397,-0.00459512750422582,0.0036660938926506787
1772457084267613400,3.672613525390625,0.02016308258473873,-0.02269303945377469,-0.010441323648625983
1772457084277631500,3.682631591796875,0.050091772380471224,-0.03250213874662295,-0.01701579753495753
1772457084287650300,3.692650390625,0.035431378865242,-0.023971023500338196,0.013978439133055508
1772457084297668400,3.70266845703125,0.03289221577644348,-0.0032922647447325287,0.011000784162292256
1772457084307687400,3.7126875,0.054743397578597065,-0.010170333820674568,-0.004655141462618485
1772457084317705500,3.72270556640625,0.025564649367332458,-0.002798508144728839,0.0014326540184672922
1772457084327724500,3.732724609375,0.02885316951870918,-0.009170490862056612,0.015547734276391565
1772457084337742300,3.742742431640625,0.05219079048633575,-0.012057426208909601,0.006784865234000608
1772457084347761400,3.752761474609375,0.04830196635425091,-0.003988174587022513,-0.00007468180456198752
1772457084357779500,3.762779541015625,0.023614099821448326,-0.0024858985316008326,0.02190268366052769
1772457084367798300,3.77279833984375,0.0502495932906866,-0.007553593717329204,0.01859049037261866
1772457084377816300,3.78281640625,0.047106034567952156,-0.016763558073248714,0.0034048856731969863
1772457084387835400,3.79283544921875,0.03917874870002269,-0.002429620033409446,-0.01675878143343143
1772457084397853400,3.802853515625,0.054290393114089966,-0.02041272823056206,0.002484711221512407
1772457084407872500,3.81287255859375,0.04606324751675129,-0.008775737657118587,0.0009657123601529747
1772457084417890600,3.822890625,0.03917874870002269,-0.004365172939561307,-0.015718990056915207
1772457084427908400,3.832908447265625,0.025710195317864417,-0.013575192094407974,-0.011192041551228611
1772457084437927400,3.842927490234375,0.03932838630378246,-0.015321232044138013,-0.0037126821138896045
1772457084447945500,3.852945556640625,0.06282499722540379,-0.024606563191208988,0.006632661213818937
1772457084457964500,3.862964599609375,0.03992869028449058,-0.0095234690181911,0.0037025625786744057
1772457084467982600,3.872982666015625,0.04292202688157558,-0.006702000122983008,0.0009579400456510484
1772457084478001400,3.88300146484375,0.0451695135474205,-0.02514711807500571,0.00007298303782008588
1772457084488019500,3.89301953125,0.03199848180711269,-0.010432491888199,0.0033189883548766373
1772457084498038500,3.90303857421875,0.03963116864264011,-0.006946494669653475,0.0024667097739409652
1772457084508056300,3.913056396484375,0.04486848477423191,-0.010613145684730261,-0.008020078717917203
1772457084518075400,3.923075439453125,0.03589139759242534,-0.00984678268842399,0.009673745942767709
1772457084528093400,3.933093505859375,0.03664426178634166,-0.025541268491744994,0.006878087342251092
1772457084538112500,3.943112548828125,0.03828852186203003,-0.022697405101638285,0.007512046997388824
1772457084548130600,3.953130615234375,0.03050853551030159,-0.005808357485197484,0.02216229357793927
1772457084558149400,3.9631494140625,0.038138299736380575,0.0005936185115948319,0.010537075640680267
1772457084568167400,3.97316748046875,0.03574059094488621,-0.02239716177973896,0.006851592060970142
1772457084578186500,3.9831865234375,0.05489478874802589,-0.024172391291335225,0.01000492325904779
1772457084588204300,3.993204345703125,0.04995733234584331,-0.0067191156545653935,0.0048149990662932395
1772457084598223400,4.003223388671875,0.022422844210267065,-0.0057819444023072715,0.0031379783653188494
1772457084608241400,4.013241455078125,0.04666296697556972,-0.019834800478443503,-0.013284017994953318
1772457084618260500,4.023260498046875,0.04905892220139503,-0.01553913084482774,0.009834525995049625
1772457084628278500,4.033278564453125,0.015688567519187926,-0.014948599339462815,0.012903512511076404
1772457084638297300,4.04329736328125,0.03274666982591152,-0.007259067750163376,0.01752371965763159
1772457084648315400,4.0533154296875,0.06521744531989097,-0.013584909770824015,-0.012978203448792918
1772457084658334500,4.06333447265625,0.03199906632900238,-0.0007778890373185276,0.0002867719189729541
1772457084668352300,4.073352294921875,0.01927870096564293,0.01475596284419298,0.004874300638632849
1772457084678370600,4.08337060546875,0.07180208440721035,-0.011773421635758131,-0.004111316909501329
1772457084688389600,4.0933896484375,0.03469605032801628,-0.01108414246365428,0.00801495501822792
1772457084698407400,4.103407470703125,0.008509469670057297,-0.03231664437819272,0.0179668146494776
1772457084708426500,4.113426513671875,0.037838440006971355,-0.026825974540039894,-0.0036317714979406442
1772457084718444300,4.1234443359375,0.06268003579676151,-0.02578609183197841,0.0008457209759857506
1772457084728463400,4.13346337890625,0.004321370330452919,-0.007091657027695327,-0.0025491090940777212
1772457084738481400,4.1434814453125,0.04800912088751793,-0.005650646172836423,-0.01568507865415886
1772457084748500500,4.15350048828125,0.05818506246507167,0.004411496299318969,0.016450994125893337
1772457084758518500,4.1635185546875,0.032303602233529086,-0.002850420995056629,0.012462929136725143
1772457084768537600,4.17353759765625,0.03364566449224949,-0.016279683546442537,0.009615101957553997
1772457084778555400,4.183555419921875,0.06641162354052066,-0.01569452233593911,-0.010801142537500709
1772457084788574500,4.193574462890625,0.023915713116526603,-0.015900548035744578,0.002257469203742221
1772457084798592500,4.203592529296875,0.028104981499910354,-0.026417868663184345,0.011745547248143702
1772457084808611300,4.213611328125,0.034841596278548236,-0.0028634814060293137,0.0027087109694257376
1772457084818629400,4.22362939453125,0.0387386037170887,-0.02153533905232325,0.010207003436097874
1772457084828648400,4.2336484375,0.018686580291390417,-0.026143910560011863,0.010417824042029677
1772457084838666500,4.24366650390625,0.04965864166021347,-0.01154098285306245,-0.0006279317731503397
1772457084848685600,4.253685546875,0.04217851503789424,-0.009673581545986234,0.0014798358947504312
1772457084858703400,4.263703369140625,0.03051028907597065,-0.007024491809308528,-0.0031074918955098837
1772457084868722400,4.273722412109375,0.05489946492314338,-0.013702252540178596,0.004408226629998535
1772457084878740500,4.283740478515625,0.05175649072229862,-0.03013449629982933,0.012723141842335462
1772457084888759300,4.29375927734375,0.03529693883061409,-0.028778332450520246,0.004803345161117613
1772457084898777600,4.303777587890625,0.038438159465789795,-0.011750168624334036,0.009694542135624214
1772457084908795600,4.313795654296875,0.06432780300378799,-0.0033974604185670614,0.015495593097200616
1772457084918814500,4.323814453125,0.038593057766556735,-0.015075312725361436,-0.0005534234985243529
1772457084928832500,4.33383251953125,0.047128246399760244,-0.01265939242374152,-0.0066904192830435924
1772457084938851600,4.3438515625,0.032765959048271176,0.0012887611689046024,-0.002924390413565561
1772457084948869400,4.353869384765625,0.05131809930503368,-0.021954185518901794,0.006339203825732693
1772457084958888400,4.363888427734375,0.04563303940594196,-0.01138719879714772,0.01208534626229666
1772457084968906500,4.373906494140625,0.034712416940927505,-0.012226115573011337,0.012366327761299907
1772457084978925600,4.383925537109375,0.034111528438329694,-0.022629052573163062,0.0069517279671970755
1772457084988943600,4.393943603515625,0.05087094005942344,-0.013766970073152333,0.008546093619707972
1772457084998962400,4.40396240234375,0.04922609546184539,-0.005792611926794052,-0.011367361585516482
1772457085008980500,4.41398046875,0.05312018029093742,0.002309573850315064,-0.008111711657280102
1772457085018999600,4.42399951171875,0.042348610907793044,-0.003957377589959651,0.002543099478399381
1772457085029017300,4.434017333984375,0.03636602936685085,-0.010293777537252753,-0.009979049032274633
1772457085039036400,4.444036376953125,0.024545243191719055,-0.0036880956619046628,-0.004909189288923517
1772457085049054500,4.454054443359375,0.03561258065104484,-0.022326653826795516,0.00017741152667440473
1772457085059073500,4.464073486328125,0.04608662839233875,-0.03067671341774985,0.006067255016556009
1772457085069091600,4.474091552734375,0.03890577697753906,-0.013832929715141653,-0.005627968550147488
1772457085079110400,4.4841103515625,0.045488662499189376,-0.008892349774111062,0.011611956596886738
1772457085089128400,4.49412841796875,0.03202303172647953,0.003477612982690334,-0.001001852252613753
1772457085099147500,4.5041474609375,0.03127192109823227,-0.020108137527108192,0.016285775360511616
1772457085109165300,4.514165283203125,0.05267009843587875,-0.015950889983493834,0.020386689607007426
1772457085119183600,4.52418359375,0.048480245530605315,-0.020569800222106277,-0.0019151677052490412
1772457085129202400,4.534202392578125,0.05327157146036625,-0.012192743026372044,0.005360303190443665
1772457085139220500,4.544220458984375,0.045043256819248194,-0.021399127185717223,0.0113408206384629
1772457085149239600,4.554239501953125,0.028432898280024526,0.0020875285974703726,0.0019005729243159292
1772457085159257300,4.56425732421875,0.05985504150390625,-0.011926949963346123,0.008967469970090314
1772457085169276400,4.5742763671875,0.045043256819248194,-0.009599310733377933,0.00227349788993597
1772457085179294500,4.58429443359375,0.05342646976113319,-0.00557009174991399,0.00002887903461232781
1772457085189313500,4.5943134765625,0.04639642499387264,-0.010292955553345381,-0.007311866516480222
1772457085199331600,4.60433154296875,0.047593525823950766,-0.008512246149033308,0.008400365006085484
1772457085209350700,4.6143505859375,0.04759703295528889,-0.012157598647754638,0.00701775154126808
1772457085219368400,4.624368408203125,0.03547814061641693,-0.019776823213510215,0.017158685737522317
1772457085229387500,4.634387451171875,0.030685645642876624,-0.014242789157666266,0.012327173927845433
1772457085239405300,4.6444052734375,0.050588031464815136,-0.012147606976702809,0.0016089513002894818
1772457085249424400,4.65442431640625,0.05193769250810146,-0.01027039666166529,-0.002951753344526514
1772457085259442700,4.664442626953125,0.04670271446406841,-0.007210168840829282,-0.0026067118996754286
1772457085269461500,4.67446142578125,0.027700492352247235,-0.01581639514993876,-0.0007909037825185806
1772457085279479600,4.6844794921875,0.054041971310973165,-0.006820603267662226,0.025602716355398295
1772457085289498600,4.69449853515625,0.0369826999604702,-0.014687409386318176,0.011236154687590896
1772457085299516400,4.704516357421875,0.04117196834385395,-0.0033392091589979824,-0.0025065485939849167
1772457085309534500,4.714534423828125,0.04626081591546535,-0.009292436741292476,0.001687560361297801
1772457085319553300,4.72455322265625,0.042968788632750506,-0.021027170334476975,0.01092587402886711
1772457085329571600,4.734571533203125,0.04222060061395168,0.009322576151229441,-0.016534343294100834
1772457085339590700,4.744590576171875,0.03294190013706684,0.007441054987255484,-0.0015260770561173558
1772457085349608400,4.7546083984375,0.057929626399278636,-0.0014139036522246896,0.006934292775206267
1772457085359627500,4.76462744140625,0.030693828949332234,-0.00896875774487853,-0.012240180630981921
1772457085369645600,4.7746455078125,0.04281505937576294,-0.028559173274505883,0.009334951575612649
1772457085379664400,4.784664306640625,0.035625440132617946,-0.013459401961322873,0.011013908505346625
1772457085389682400,4.794682373046875,0.03741758424639702,-0.008818919211719185,0.011624980475241317
1772457085399701500,4.804701416015625,0.041159108862280844,-0.0177781419432722,0.009391385337430983
1772457085409719600,4.814719482421875,0.043999885246157645,-0.02522279539341107,0.023789721249835565
1772457085419738600,4.824738525390625,0.04803834698200225,-0.020333562047127635,0.01028882736749947
1772457085429756400,4.83475634765625,0.054173488736152645,-0.009724708945024758,0.011493472183216363
1772457085439775500,4.844775390625,0.04324643653035164,-0.013132654224988072,0.009204868055693805
1772457085449793500,4.85479345703125,0.05043196412026882,-0.002505680944304913,0.003889335588738322
1772457085459812400,4.864812255859375,0.05925999822020531,-0.014000559633318335,0.016357498023007063
1772457085469830400,4.874830322265625,0.05132803617715835,-0.01272171707022935,0.013892331752181053
1772457085479849500,4.884849365234375,0.05192658659219741,-0.012525774373020977,-0.001297574663022533
1772457085489867500,4.894867431640625,0.02559153737425804,0.007419939133990555,-0.004574376977141946
1772457085499886600,4.904886474609375,0.052229953452944754,-0.0146025075818412,0.0037616358221508562
1772457085509904400,4.914904296875,0.03861176246702671,-0.011124419675115495,0.0003419087728485465
1772457085519923500,4.92492333984375,0.05148059639036655,-0.013159487432986497,-0.0048518787442706525
1772457085529941500,4.93494140625,0.04759118773639202,-0.011299794508330524,0.003012077830173075
1772457085539959600,4.94495947265625,0.03322773134112358,-0.004919847680255771,0.0025340119896456598
1772457085549978400,4.954978271484375,0.04115618625283241,-0.00446996675459668,-0.01169283981337212
1772457085559996400,4.964996337890625,0.03711830903887749,-0.011155088808014989,-0.008931174814002588
1772457085570015500,4.975015380859375,0.03607259937822819,-0.0004557626771740615,0.0005087623728904873
1772457085580033500,4.985033447265625,0.054178749433159826,-0.005071786838956177,0.009289815525943412
1772457085590052400,4.99505224609375,0.05149111778438091,-0.015074709937162697,-0.005085587035445496
1772457085600070400,5.0050703125,0.03129471745193004,-0.013319993490632622,0.004208055282244458
1772457085610089500,5.01508935546875,0.0486509259223938,-0.02150165597843006,0.02010621043150313
1772457085620107500,5.025107421875,0.040571664363145826,-0.012964713779557496,0.005092455167649314
1772457085630126600,5.035126708984375,0.037727380847930904,-0.0156296404061839,-0.0024345428036991507
1772457085640144600,5.04514453125,0.036678164055943485,-0.00023722455566748974,0.0037879941061139105
1772457085650163500,5.05516357421875,0.04161445141434669,-0.005957227903977036,0.004289194227056577
1772457085660181500,5.065181396484375,0.021261399215459824,-0.012691084469947963,0.002175325611932203
1772457085670200600,5.07520068359375,0.03472819903194904,-0.014382252427283674,-0.0009525423513259739
1772457085680218400,5.08521826171875,0.042508769905567165,-0.012056859953328966,0.0034940343945287166
1772457085690237400,5.095237548828125,0.036674656924605364,-0.009889525851607323,-0.00147317782510072
1772457085700255500,5.10525537109375,0.03802022631466388,-0.010188271336164324,-0.002426670024497434
1772457085710274600,5.115274658203125,0.025302783560752867,-0.018207363673392683,0.017161416550725696
1772457085720292600,5.125292724609375,0.046698622810840605,-0.007187609949149191,0.005572329372772947
1772457085730310400,5.135310302734375,0.044456981363892555,-0.00975280252834782,0.015576658976776524
1772457085740329500,5.14532958984375,0.02096738470494747,-0.018133512985892594,-0.001024265013821423
1772457085750347800,5.15534765625,0.037277298992872236,-0.00653566711274907,0.003395752518670633
1772457085760366800,5.165366943359375,0.022912673553824422,-0.021229487973544747,0.018459201276302337
1772457085770385200,5.17538525390625,0.029944471886754035,-0.005504150374233722,0.0070043806030415
1772457085780404000,5.185404052734375,0.03653028001785278,-0.006631419104803353,0.0026630634631030258
1772457085790422000,5.195422119140625,0.024711831930279732,-0.006140347652230411,0.010270487993210554
1772457085800441000,5.205441162109375,0.05119593423008918,-0.011909195110946893,0.002059709008783102
1772457085810459000,5.215458984375,0.042811552244424816,-0.0014079305691644549,0.012866989026125519
1772457085820478000,5.22547802734375,0.033383798685669895,-0.019384134101495146,-0.0067535933129023755
1772457085830495700,5.235495849609375,0.06032032092809677,-0.0020175869001075623,0.00038834173046052453
1772457085840514800,5.245514892578125,0.034737551382184026,0.0037198242407292127,0.0004503101839218288
1772457085850533000,5.255533203125,0.026509236741065978,-0.009690605746023356,-0.011808438150212168
1772457085860552000,5.265552001953125,0.05748480524122715,-0.005932422256283462,-0.015094748078193514
1772457085870570000,5.275570068359375,0.0432698174059391,-0.007891301239095629,-0.00005500898971222341
1772457085880589000,5.285589111328125,0.053147068297863004,0.010011088138353079,-0.010434336785413324
1772457085890606800,5.29560693359375,0.053743280625343316,-0.010716788722295313,-0.010481957053113729
1772457085900626000,5.3056259765625,0.028456863677501675,-0.013145787701196968,0.005047008590726182
1772457085910644000,5.31564404296875,0.03953004635572433,-0.0068866359748877585,0.007047123766224831
1772457085920662000,5.325662109375,0.0392307711482048,-0.01903884606147185,0.0007941460523754358
1772457085930681000,5.33568115234375,0.032793431577086446,-0.013188585663307457,-0.005437204351555556
1772457085940699000,5.345698974609375,0.04341945500969886,-0.00390930066453293,-0.00412583862519823
1772457085950718000,5.355718017578125,0.05225158076286315,-0.0054214770594611765,-0.0038239513354841616
1772457085960736000,5.365736083984375,0.03025134587883949,-0.01688955907309428,-0.008692333689983933
1772457085970754800,5.3757548828125,0.042970542198419566,-0.01253848772412166,0.009980473804380744
1772457085980772900,5.38577294921875,0.032495325413346286,-0.016430618058145045,0.017902690771548078
1772457085990792000,5.3957919921875,0.04147065902948379,-0.01578276687497273,0.0015171630972996353
1772457086000810000,5.40581005859375,0.038330022916197776,-0.015799462281446904,0.0029238058916758744
1772457086010829000,5.4158291015625,0.0488075777888298,-0.016501692266669123,-0.006349624755047262
1772457086020846800,5.425846923828125,0.03369184172153473,-0.00822467964561656,-0.005005955061130225
1772457086030866000,5.435865966796875,0.04341653240025043,-0.021303210796881467,0.004232614334765822
1772457086040884000,5.445884033203125,0.04281622841954231,-0.014527816644124687,0.002195509883435443
1772457086050902800,5.45590283203125,0.059879591423273086,-0.025618169652856886,0.01562840743032284
1772457086060920800,5.4659208984375,0.041622634720802305,-0.006142265614680945,0.011464090825105085
1772457086070940000,5.47593994140625,0.03264554753899574,-0.010022084456402808,-0.011188863213453441
1772457086080958000,5.4859580078125,0.0411783980846405,-0.010346457572560757,-0.011304434150829911
1772457086090977000,5.49597705078125,0.026516251003742216,-0.007596793538238853,-0.0006097385293338447
1772457086100994800,5.505994873046875,0.03803893101513386,-0.004766081890650093,-0.010126120219612494
1772457086111012900,5.516012939453125,0.04357786044180393,-0.012497059735190122,0.004811263606091961
1772457086121032000,5.526031982421875,0.04657061251699924,-0.006114025900885462,-0.005416061098827049
1772457086131050000,5.536050048828125,0.03594634265005588,-0.020029026142600923,0.01387253107316792
1772457086141069000,5.546069091796875,0.03639525546133518,-0.010536536784563212,-0.008688899623882026
1772457086151087000,5.556087158203125,0.047019525328278536,-0.012975034244172274,-0.01446492574205622
1772457086161106000,5.56610595703125,0.05405541531443596,-0.017275562715996055,-0.0036663039552047847
1772457086171124000,5.5761240234375,0.04298632428944111,-0.011122885305155069,0.007249770198855548
1772457086181143000,5.58614306640625,0.03161678901314735,-0.012982961822301149,-0.002555063910828903
1772457086191160800,5.596160888671875,0.02607902863025665,-0.01789526551691815,0.011100052418839186
1772457086201180000,5.606179931640625,0.02967325372993946,0.0052559112342074514,0.002870714864414185
1772457086211198000,5.616197998046875,0.03161737353503704,-0.003574716681614518,-0.00933928069085814
1772457086221217000,5.626217041015625,0.023837971705198288,-0.004579546342603862,0.005074919510958716
1772457086231235000,5.636235107421875,0.04987316119372844,-0.01440079273097217,-0.004143438213970512
1772457086241254000,5.64625390625,0.03191781778633594,-0.015097688953951,-0.011935836522700265
1772457086251272000,5.65627197265625,0.039998832911252974,-0.006662325699720532,-0.0013744027588982134
1772457086261291000,5.666291015625,0.06259411107897758,0.0012773812583647668,0.005340182851022109
1772457086271308800,5.676308837890625,0.05795826797187328,-0.004420081464573741,0.010113589531602338
1772457086281327000,5.6863271484375,0.04912438865303993,-0.02043062921343371,0.014770977750234305
1772457086291346000,5.696345947265625,0.044483284848928446,-0.005570584940258414,-0.005586266566580161
1772457086301364000,5.706364013671875,0.0486725532323122,-0.011912135986704379,0.013788496918370946
1772457086311383000,5.716383056640625,0.0410433735281229,-0.013359558316040783,0.008922635314520448
1772457086321400800,5.72640087890625,0.04223638270497322,-0.015337178531941026,-0.008689931670343503
1772457086331420000,5.736419921875,0.024129063606262206,-0.01864918915675953,-0.0017014153567142783
1772457086341437700,5.746437744140625,0.04343465257883072,-0.018144253575615582,0.004670448629604652
1772457086351456800,5.756456787109375,0.03385550785064697,-0.005057593916822225,0.026018768076691776
1772457086361475000,5.76647509765625,0.04417874894440174,0.0004090557249262929,-0.009180318136326969
1772457086371494100,5.776494140625,0.026075521498918532,-0.016409082079771906,-0.009412793451640755
1772457086381512000,5.786511962890625,0.04776829786896705,-0.016354812875576316,0.0017868103515356777
1772457086391531000,5.796531005859375,0.049265258428454396,-0.020923819557856767,0.00006577697889879346
1772457086401548800,5.806548828125,0.0337017785936594,-0.01003304424183443,0.00362694919235073
1772457086411567900,5.81656787109375,0.022929624688625333,-0.0062318983932025725,-0.011031782088754698
1772457086421586000,5.8265859375,0.028019641304016112,-0.009702095254417509,0.018274565424397586
1772457086431604700,5.836604736328125,0.03610299451649189,-0.01799160203086212,0.02522221087152138
1772457086441623000,5.846623046875,0.020392799687385558,-0.014494206635467707,0.005035866142204031
1772457086451642000,5.85664208984375,0.04074117571115494,-0.013636804354842751,0.013023083770135417
1772457086461660000,5.866659912109375,0.04628185870349407,-0.011855400830786674,0.010973832223284989
1772457086471678000,5.876677978515625,0.04134440230131149,-0.010487126418575644,-0.011171628950862213
1772457086481696800,5.88669677734375,0.05900047050118446,-0.016409557003807276,0.011209394544828683
1772457086491715000,5.896715087890625,0.049126142218708986,-0.02308539977222681,0.01137001933348365
1772457086501734100,5.906734130859375,0.03939677536487579,-0.008776431776862591,-0.0014326996842399238
1772457086511752000,5.916751953125,0.05106617037057876,-0.016035572592262178,-0.005242713825916871
1772457086521771000,5.92677099609375,0.045825347107648844,-0.013977799812238663,-0.00020335881868377328
1772457086531788800,5.936788818359375,0.03520283080637455,-0.022529957846552134,0.0035466961635276673
1772457086541807900,5.946807861328125,0.026824878561496734,-0.015502579960413276,0.025898183037480337
1772457086551826000,5.956825927734375,0.042537411478161806,-0.003259659383073449,0.006358894906891509
1772457086561844700,5.9668447265625,0.035353637453913685,-0.007865856270585208,-0.0018532723170239477
1772457086571863000,5.976863037109375,0.053018473482131956,-0.0099589012933895,0.016697424901323393
1772457086581882000,5.986882080078125,0.049131987437605856,-0.008357859304919838,0.02388912650370039
1772457086591900000,5.99689990234375,0.045239656174182886,-0.0058690381638705725,0.01188754040156491
1772457086601919000,6.0069189453125,0.031179566639661788,-0.001919094961695373,0.0016295648300554601
1772457086611937000,6.01693701171875,0.03672141867578029,-0.00009078355599194765,-0.0032534305716864762
1772457086621954800,6.026954833984375,0.03821370306015014,-0.007873802115023136,0.000896875774487853
1772457086631974000,6.036973876953125,0.034471009400486946,-0.0025377565830014643,-0.0012395334660075604
1772457086641992000,6.046991943359375,0.039406712237000464,-0.0072471033177338535,0.008139421648113057
1772457086652011000,6.057010986328125,0.04404021725654602,-0.018921302362717687,-0.003974922379804775
1772457086662029000,6.067029052734375,0.037303602477908135,-0.0176620047503151,0.001930228277062997
1772457086672047900,6.0770478515625,0.034460488006472584,-0.005857603454403579,0.01038559313970618
1772457086682066000,6.08706591796875,0.04074643640816211,-0.007315638509299605,0.008007739826152101
1772457086692085000,6.0970849609375,0.04104804970324039,-0.016201777738332746,-0.01265315447920002
1772457086702102800,6.107102783203125,0.030574001961946484,-0.02018987926011905,-0.004325781644089147
1772457086712121900,6.117121826171875,0.05062485634386539,-0.02203766255127266,-0.018917329440498724
1772457086722140000,6.127139892578125,0.04658639460802078,-0.001914491851814091,-0.0005193750984501094
1772457086732159000,6.137158935546875,0.03401800493597984,-0.013599906410556285,0.010236850585089996
1772457086742177000,6.147177001953125,0.029528876823186872,-0.011377353256568312,-0.012767611171724274
1772457086752195300,6.1571953125,0.05451777212917804,-0.014355711480230092,0.013043140177475288
1772457086762213000,6.167213134765625,0.04688391624987125,-0.010391465758066624,0.0023782917049713433
1772457086772232200,6.177232177734375,0.032222353690862654,-0.010495145328249782,-0.0013753708732780069
1772457086782250500,6.18725048828125,0.03207739226222038,-0.01009635526901111,0.0017878515311516821
1772457086792268300,6.197268310546875,0.04255260904729366,-0.011308050880022347,0.01414891859544441
1772457086802287400,6.207287353515625,0.04913783265650272,-0.015597875294741242,-0.006955344696389511
1772457086812305200,6.21730517578125,0.03821428758203983,-0.022962686708010733,-0.0009165942551102489
1772457086822324200,6.22732421875,0.06514964078068733,-0.013112817013356834,-0.002922600315278396
1772457086832342300,6.23734228515625,0.04584755893945694,-0.019337883806973693,0.015910448375251143
1772457086842361000,6.247361083984375,0.03103343616724014,-0.005843757592141628,0.013325573848048224
1772457086852379400,6.25737939453125,0.03896306012272834,-0.007424688374344259,0.008745561714563518
1772457086862398500,6.2673984375,0.03612111469507217,-0.016519447119068352,0.018347986853634937
1772457086872416300,6.277416259765625,0.03896306012272834,-0.013946363494358956,0.013890304191876202
1772457086882435300,6.287435302734375,0.036568858462572094,-0.015116594583820551,0.0033276100527495143
1772457086892453000,6.297453125,0.040460020682215686,-0.01675690913675353,-0.0025950579944998024
1772457086902472200,6.30747216796875,0.04435527455508709,-0.032271435263287275,0.005950177108682691
1772457086912490200,6.317490234375,0.03358721230328083,-0.003661554714851081,0.004695911864424124
1772457086922509300,6.32750927734375,0.054985974162816996,-0.00435169240348041,0.006453834048192947
1772457086932527400,6.33752734375,0.029995909813046454,-0.010064772820658981,0.011215915617160498
1772457086942546400,6.34754638671875,0.032090836265683174,-0.006655220105499029,-0.00037729061348363755
1772457086952564200,6.357564208984375,0.028797639939188956,-0.017574308200553057,0.0017550726395566016
1772457086962582300,6.367582275390625,0.04525836087465286,-0.015737612558994443,0.0008444697338156401
1772457086972601300,6.377601318359375,0.0527419946283102,-0.002925458992645144,-0.004125427633244544
1772457086982619400,6.387619384765625,0.03837444657981395,-0.017351422697491944,0.0073167801536154
1772457086992638500,6.397638427734375,0.04016717521548271,-0.007800937808211892,-0.011135096332756802
1772457087002656300,6.40765625,0.04764788635969162,-0.010755604629032313,0.015754463229095562
1772457087012675300,6.41767529296875,0.028044191223382947,-0.004495612652506679,0.011989119346207007
1772457087022693400,6.427693359375,0.035375849285721774,-0.015749650056660174,0.008247567330859601
1772457087032712200,6.437712158203125,0.04360474844872951,-0.021142613407690077,0.014013674843218176
1772457087042730200,6.447730224609375,0.03672375676333904,-0.009134086108114569,0.009158617761172353
1772457087052749300,6.457749267578125,0.03912029651105404,0.001889412209484726,0.011289391845325007
1772457087062767400,6.467767333984375,0.048996962881088256,-0.01974472930850461,-0.0022882570676505563
1772457087072786400,6.477786376953125,0.038671968221664424,0.0017049042217433452,-0.007610201009083539
1772457087082804200,6.48780419921875,0.029989480072259902,0.005654500364046544,0.01143735808180645
1772457087092823300,6.4978232421875,0.03702010936141014,-0.016038385603856294,0.017383772330824283
1772457087102841300,6.50784130859375,0.03282850289046764,-0.0013408018833957612,0.0019265567489434032
1772457087112859100,6.517859130859375,0.034027357286214824,-0.005414974253438413,0.0011044815100263803
1772457087122878200,6.527878173828125,0.04689619120955467,-0.008668642287142574,0.015681863783765584
1772457087132896500,6.537896484375,0.034924013864994045,-0.010036660971026868,0.0040916806272696706
1772457087142915300,6.547915283203125,0.023403087419271468,-0.006962112363893538,0.004057221235241741
1772457087152933400,6.557933349609375,0.0471913747638464,0.0017409071168862282,0.0032004674085881557
1772457087162952400,6.567952392578125,0.04090601088404655,-0.0003824965115636587,0.002007631761673838
1772457087172970200,6.57797021484375,0.04225391836166382,0.002626110719889402,0.00794671208760701
1772457087182989300,6.5879892578125,0.04255144000351429,-0.02298360163187608,0.01593006639117375
1772457087193007000,6.598007080078125,0.0401543157339096,-0.0088497344750911,0.001626094231335446
1772457087203026200,6.608026123046875,0.03341886999905109,0.002788224212732166,0.010968297531642019
1772457087213044500,6.61804443359375,0.04149579347074032,-0.012122399470210075,-0.004252963003050536
1772457087223063300,6.628063232421875,0.05002279879748821,-0.017324114565458147,0.011036001606145873
1772457087233081300,6.638081298828125,0.035057284855842585,-0.024102595724444835,0.01280650927685201
1772457087243100400,6.648100341796875,0.030713118171691894,-0.018283716845232993,0.005258568982174619
1772457087253118200,6.6581181640625,0.04432721750438213,-0.011292761979345232,-0.014378827494336291
1772457087263136500,6.668136474609375,0.05644903245270252,-0.012650642861705273,0.007417555380659177
1772457087273155300,6.6781552734375,0.04373042065501213,-0.005809745724685489,0.006651530311070382
1772457087283173400,6.68817333984375,0.036543724021315574,-0.004531999140139669,-0.002365605753334239
1772457087293192400,6.6981923828125,0.05075988090038299,-0.010024440810270607,-0.013640503282425925
1772457087303210200,6.708210205078125,0.04447568606436252,-0.002603716224990785,0.0033144857096951454
1772457087313229300,6.718229248046875,0.03878770355582237,-0.0066379036445170635,-0.0037135132309515026
1772457087323248400,6.728248291015625,0.04791676642894745,-0.01436636073840782,0.008401168723683804
1772457087333266200,6.73826611328125,0.02711655498445034,-0.014886311225593089,0.0010113689996302127
1772457087343285200,6.74828515625,0.03594225099682808,0.0009046572221443057,-0.007161909252312034
1772457087353303300,6.75830322265625,0.046565351819992065,-0.005544738112948835,-0.013335784714808686
1772457087363322400,6.768322265625,0.03579436695873737,-0.01173763793632388,-0.003715641255956143
1772457087373340400,6.77834033203125,0.019485037192702292,-0.01677250856468454,-0.0005762289853766561
1772457087383359200,6.788359130859375,0.029058336701989172,-0.01286340882955119,0.0064142966222483664
1772457087393377300,6.798377197265625,0.050903088763356204,-0.02814540484184399,0.009280371844163164
1772457087403396400,6.808396240234375,0.038187984097003934,-0.0124385162146762,0.004827073096577078
1772457087413414100,6.8184140625,0.028313655814528462,-0.003823960468638688,0.0018313070803880691
1772457087423433200,6.82843310546875,0.04058335480093956,-0.0074122490178793665,-0.006352611296577378
1772457087433451500,6.838451416015625,0.04327507810294628,-0.036833628612291065,0.005369144084025174
1772457087443470300,6.84847021484375,0.03624269524812698,0.0004777553132735192,0.011179538262682035
1772457087453488400,6.85848828125,0.029057752180099487,-0.0033102753254584966,-0.0001402943866793066
1772457087463506200,6.868506103515625,0.04596855497062206,-0.010397384042199701,0.004726416600542143
1772457087473525200,6.878525146484375,0.05105506445467472,-0.01641668086433783,-0.008138097340706736
1772457087483543300,6.888543212890625,0.033844401934742925,-0.0073785111450590185,-0.006073995284596458
1772457087493562000,6.89856201171875,0.04536299029290676,-0.01126770060332492,-0.009534638866176828
1772457087503580400,6.908580322265625,0.035633038917183876,-0.016937928259465843,0.02023016560473479
1772457087513599500,6.918599609375,0.04102408430576324,-0.004108001574408263,0.007488099866220727
1772457087523617300,6.9286171875,0.048502457362413404,-0.0030142697872593996,0.0009783343797083943
1772457087533636400,6.93863623046875,0.04371171595454216,-0.008929887039214372,-0.00011623765765689313
1772457087543654100,6.948654052734375,0.03862345290482044,-0.01924030518401414,0.00023242964954115449
1772457087553673200,6.958673095703125,0.024406126981973645,-0.013233922642376272,0.014757104488508775
1772457087563691300,6.968691162109375,0.044454643276333805,-0.007227430502884089,0.001274385583680123
1772457087573710000,6.9787099609375,0.04624737191200256,-0.01000630236538127,-0.013580626321351154
1772457087583728400,6.988728271484375,0.04250584729611873,-0.007098890486080199,0.009136424195673317
1772457087593747500,6.99874755859375,0.04594985027015209,-0.01371801636489108,-0.006469771402841434
1772457087603765200,7.00876513671875,0.04954582893550396,0.005435432519577443,-0.007288723102910444
1772457087613783300,7.018783203125,0.04520633842647075,-0.014332915126532316,0.007580792251508682
1772457087623802400,7.02880224609375,0.04311433458328247,-0.02196003073779866,0.01140600396231748
1772457087633820400,7.0388203125,0.045808980494737625,-0.01189487432464957,0.017840923247486352
1772457087643839200,7.048839111328125,0.04476268631219864,-0.009177888717222958,0.001309374698670581
1772457087653857300,7.058857177734375,0.0323380890250206,-0.015218885914515702,0.015543843552563339
1772457087663876400,7.06887646484375,0.04400748403072357,-0.00904754033582285,-0.0006137388510163873
1772457087673894400,7.078894287109375,0.03847147721350193,-0.007570325656421482,0.003986384488735348
1772457087683913200,7.088913330078125,0.043857846426963804,-0.013264244715403765,0.009760282581904903
1772457087693931300,7.09893115234375,0.04894903208613395,-0.018645115769840775,0.00270079252445139
1772457087703950300,7.108950439453125,0.05747720645666122,-0.008082385098095982,0.02099333199695684
1772457087713968400,7.118968505859375,0.03817570913732052,-0.009204849789384751,0.022510549893183632
1772457087723987500,7.128987548828125,0.038624621948599815,-0.008746840356197208,-0.01042245455137454
1772457087734005200,7.139005126953125,0.04176759614944458,-0.0033415107139386233,0.02011085007400252
1772457087744024300,7.1490244140625,0.044161797809600827,-0.011864972376730292,-0.005663341257628053
1772457087754043400,7.15904345703125,0.03907470380365848,-0.001464282132592052,-0.00561822347426787
1772457087764061200,7.169061279296875,0.03548106322586536,-0.00536074158186093,0.00038669776264578103
1772457087774080300,7.179080322265625,0.04041735058426857,-0.019877306179609148,0.018507013340247794
1772457087784098300,7.189098388671875,0.030536592561006545,-0.005247618329897522,-0.0003767426242120564
1772457087794117000,7.1991171875,0.03532382683753967,-0.003396400972642004,0.014387668387917801
1772457087804135400,7.209135498046875,0.05178220968544483,-0.005654025440011173,0.00003582936520688235
1772457087814154500,7.219154541015625,0.043398412221670145,-0.013462671630643307,0.005917736143805087
1772457087824172300,7.22917236328125,0.04549333867430687,-0.0041430363551713525,0.0037147644731216132
1772457087834191400,7.23919140625,0.030229718568921086,-0.014316164921130985,-0.0036394890135154124
1772457087844209200,7.249209228515625,0.05746025532186031,-0.028181663465313613,-0.003151468034554273
1772457087854228200,7.259228271484375,0.06748597477376461,-0.01605867947321385,-0.004478159194206819
1772457087864246300,7.269246337890625,0.053719899749755856,-0.014918405130598692,-0.007805202991375699
1772457087874265000,7.27926513671875,0.03815934252440929,-0.003768156894482672,-0.003457885368913412
1772457087884283400,7.289283447265625,0.04773322655558586,-0.00911497954884544,0.0007243322191759944
1772457087894302500,7.299302490234375,0.052371992272138596,-0.017898443854693323,-0.004621787182288244
1772457087904320300,7.3093203125,0.04668517880737781,-0.01077772512929514,-0.0196533703637775
1772457087914338300,7.31933837890625,0.0375619611531496,-0.0034012415445409715,-0.00841400080579333
1772457087924357400,7.329357421875,0.03696574882566929,-0.01258641851907596,-0.009335609162738547
1772457087934375200,7.339375244140625,0.038763153636455536,-0.005509538935404271,0.00497476533842273
1772457087944394200,7.349394287109375,0.04489887991249561,-0.01271367989424616,0.009209772559674456
1772457087954412300,7.359412353515625,0.04684592232704162,0.00047908875383436675,0.006914409897802397
1772457087964431400,7.369431396484375,0.028140637335181233,-0.0017369067952036858,-0.0012616996320430189
1772457087974449400,7.379449462890625,0.046695700201392173,-0.006553403698839247,-0.006604695494659245
1772457087984468200,7.38946826171875,0.04055822035968303,-0.020231818705704063,-0.0021833079889882353
1772457087994486300,7.399486328125,0.04788929390013218,-0.015154990365449338,0.011689497078815475
1772457088004505300,7.40950537109375,0.046695700201392173,-0.017177070777583868,0.009112805858068168
1772457088014523400,7.4195234375,0.04549976841509342,-0.005727602132875472,-0.014105006388481705
1772457088024542200,7.429542236328125,0.04819266076087951,0.00006261690743267536,0.004173952083243057
1772457088034560300,7.439560302734375,0.04938976159095764,-0.006954239584691822,0.010577078857505693
1772457088044579300,7.449579345703125,0.04444821353554725,-0.00708005792144686,-0.016532671926822513
1772457088054597400,7.459597412109375,0.04983692083656788,-0.0007622530767694115,-0.011997658845689147
1772457088064615200,7.469615234375,0.03830956465005875,-0.01662562917359173,0.008835066628921777
1772457088074634200,7.47963427734375,0.030527824732661246,-0.008673574190586805,-0.0002273881482426077
1772457088084652500,7.489652587890625,0.041000118908286094,-0.008393953531607984,0.00008808014225214719
1772457088094671400,7.49967138671875,0.057309448674321174,-0.0043363852364942425,-0.006604750293586403
1772457088104689400,7.509689453125,0.03889759367108345,-0.00651993982065469,0.009036306555755436
1772457088114708500,7.51970849609375,0.04338555274009704,-0.007008782783523202,-0.0037190022568218406
1772457088124726300,7.529726318359375,0.036950551256537435,-0.01711648143045604,-0.0017926738367415964
1772457088134745300,7.539745361328125,0.03949439052045345,-0.006493471938837319,-0.0013780286212451754
1772457088144763100,7.54976318359375,0.024380408018827435,-0.01440680234665051,0.012035177844483404
1772457088154782200,7.5597822265625,0.05116553909182548,-0.000327533187624067,-0.0014579345901962369
1772457088164800500,7.569800537109375,0.05011632229983806,-0.017858221442159265,-0.007230261780787259
1772457088174819300,7.5798193359375,0.035602643778920175,-0.009665690500475466,0.009841942116525023
1772457088184837400,7.58983740234375,0.03709551268517971,-0.010374204096011816,0.00510826465813443
1772457088194856400,7.5998564453125,0.026169629523158072,-0.0029539179021492597,-0.0009360387410968542
1772457088204874200,7.609874267578125,0.035739421901106835,-0.0037463103888556357,0.0014468926063738762
1772457088214892300,7.619892333984375,0.03753273505866527,-0.008059369548689573,0.004030497625097633
1772457088224911000,7.6299111328125,0.049202130064368244,-0.0015953794326633215,-0.0011969912322238087
1772457088234929400,7.639929443359375,0.04441372674405575,-0.017321246754936872,-0.007307455202843993
1772457088244948500,7.649948486328125,0.045759296134114266,-0.007473715147841721,-0.0007579878936056048
1772457088254966300,7.65996630859375,0.04500935454964637,0.0006083594230003655,-0.012083565297164022
1772457088264985300,7.6699853515625,0.037078561550378794,-0.00879897240223363,0.0028070841768290844
1772457088275003100,7.680003173828125,0.035730069550871844,-0.02182062226710841,0.0004709237136878073
1772457088285022200,7.690022216796875,0.04096738568246364,-0.015424783750157803,0.006045207581529394
1772457088295040300,7.700040283203125,0.04860182608366012,-0.0004906878600828349,0.008469950510421768
1772457088305059000,7.71005908203125,0.03783025670051574,-0.03274369241753593,0.010475783040653913
1772457088315077400,7.720077392578125,0.060276481786370274,-0.016871913818549363,-0.012570143237709998
1772457088325096400,7.730096435546875,0.060873863157629965,-0.012282083543948828,0.011377252791868521
1772457088335114200,7.7401142578125,0.027355039915442466,-0.025592797749582678,0.008366207008156925
1772457088345133300,7.75013330078125,0.041270752543210984,-0.0033138189894147217,-0.007069509127968922
1772457088355151400,7.7601513671875,0.05024900876879692,-0.0064252838071435685,0.011591087338794022
1772457088365169400,7.77016943359375,0.03947685486376285,-0.002953168983478099,-0.00312913747173734
1772457088375188200,7.780188232421875,0.05084639014005661,-0.010409147545229643,0.007196432576421648
1772457088385206300,7.790206298828125,0.036031682845950125,-0.008262783166300506,-0.010754663914116098
1772457088395225300,7.800225341796875,0.035734161204099654,-0.008314166293665767,-0.0027263014250434934
1772457088405243400,7.810243408203125,0.040968554726243014,-0.008872713491879403,0.015520590541139244
1772457088415262200,7.82026220703125,0.05069909062385559,-0.01161227625729516,-0.0003600289514288306
1772457088425280300,7.8302802734375,0.03005143939256668,-0.009652246497012674,-0.006678929774649441
1772457088435299300,7.84029931640625,0.037384266498684884,-0.009311890360433608,-0.010732762609561904
1772457088445317400,7.8503173828125,0.03558744620978832,0.004250259589310735,0.008132160790264607
1772457088455336400,7.86033642578125,0.0466594598442316,-0.0007233458384871482,0.013640996472770348
1772457088465354200,7.870354248046875,0.03992226054370403,-0.0059157085835002355,0.005184069840703159
1772457088475373300,7.880373291015625,0.037975802651047705,-0.005555314305890351,0.018117246837681157
1772457088485391400,7.890391357421875,0.0472521650403738,-0.017533446467202157,0.005026997849158942
1772457088495409200,7.9004091796875,0.041269583499431606,-0.012228727655205876,0.0001974222682416439
1772457088505428200,7.91042822265625,0.03333937502205372,-0.013702800529450177,0.010228539414471015
1772457088515446500,7.920446533203125,0.04022036670744419,-0.008987316314876079,0.004059815051127225
1772457088525465300,7.93046533203125,0.03693184655606747,-0.010526106722094117,-0.00019460012349300086
1772457088535483400,7.9404833984375,0.039622985336184496,-0.014798395480122416,0.009020999388769269
1772457088545502500,7.95050244140625,0.04261456836760044,-0.006832878227345645,-0.003979945614794269
1772457088555520300,7.960520263671875,0.052936640417575835,-0.004832991380710154,-0.007055334472144023
1772457088565539300,7.970539306640625,0.045153146934509274,-0.011469269323721528,-0.004433269739709794
1772457088575557000,7.98055712890625,0.037976971694827076,-0.019164664398226887,0.004455171044263988
1772457088585576200,7.990576171875,0.042915597140789026,-0.0014292656181380153,-0.0010318820646964013
1772457088595594500,8.000594482421874,0.0435182392090559,-0.018163889857847244,-0.004004285471607
1772457088605613300,8.01061328125,0.03094984953701496,-0.006610102322138846,-0.010709171671420336
1772457088615631400,8.02063134765625,0.04172141892015934,-0.01394727680981159,-0.010899387880740687
1772457088625650400,8.030650390625,0.043815176329016686,-0.012024181526433676,0.006588721607392653
1772457088635668200,8.040668212890624,0.03947217868864536,-0.008341437893081456,-0.004651232472481206
1772457088645686300,8.050686279296874,0.04455635008513927,-0.011858323440235108,-0.006607179712690412
1772457088655705000,8.060705078125,0.03288987768888473,0.0037136319619603454,-0.0028746055882424115
1772457088665723400,8.070723388671874,0.0557873536735773,-0.020948424276150762,-0.007228298152564093
1772457088675742500,8.080742431640624,0.04546177449226379,-0.014757424148917198,0.007149981352500617
1772457088685760300,8.09076025390625,0.04336743256151676,-0.0035114239207468924,0.019566084805969147
1772457088695779300,8.100779296875,0.0397755455493927,-0.012160813518147915,0.015905059814080594
1772457088705797000,8.110797119140624,0.050994858700037,-0.006425813530106097,-0.006800829988112673
1772457088715816200,8.120816162109374,0.05338555322885513,-0.01535577363455668,-0.0008772394922561943
1772457088725834500,8.13083447265625,0.03677461016774177,-0.02454049395136535,0.0039012086896225806
1772457088735853300,8.140853271484374,0.05338321514129638,-0.006233414496853947,0.0010296261755283922
1772457088745871400,8.150871337890624,0.036329204487800595,0.0003584215162321925,-0.0031055282672867177
1772457088755889700,8.1608896484375,0.04441197317838669,-0.01913721013572067,0.0018352160705253481
1772457088765907500,8.170907470703124,0.04306465022265911,-0.025733064736798403,0.021683323555113748
1772457088775925800,8.18092578125,0.03887596636116505,-0.016129388355556874,-0.013440112738963216
1772457088785944600,8.190944580078124,0.05308920063078403,-0.010667908079270273,-0.0046259336344432085
1772457088795962600,8.200962646484374,0.05907879643440246,0.002432633974403143,-0.003407114162901416
1772457088805981700,8.210981689453124,0.039327801781892775,-0.011996763796545564,0.00744163950914517
1772457088815999500,8.22099951171875,0.038432898768782614,-0.019236359661258758,0.006430297908978536
1772457088826018600,8.2310185546875,0.035443069303035736,-0.01720174856111407,0.002326031794771552
1772457088836036400,8.241036376953126,0.03903554083704948,-0.013360836957674472,-0.0011107468540314585
1772457088846055400,8.251055419921874,0.02871171522140503,-0.004012724506389349,-0.0053308670334052295
1772457088856073700,8.26107373046875,0.03664484630823135,-0.018628055037185547,-0.0056968416684307155
1772457088866092500,8.271092529296874,0.04158522531986236,-0.012886826237756758,0.00725254667783156
1772457088876110600,8.281110595703124,0.037843700703978536,-0.009534045211132615,0.007816327173588798
1772457088886129700,8.291129638671874,0.04562485609948635,-0.0014942936783656478,-0.017857673452887683
1772457088896147500,8.3011474609375,0.04921498954594135,-0.01218015753943473,-0.0049612939354963595
1772457088906166500,8.31116650390625,0.039483284604549404,-0.018959899073746053,0.008333281986089423
1772457088916184600,8.3211845703125,0.02751344534754753,-0.008654741625953465,0.012649729546252637
1772457088926202600,8.33120263671875,0.049507250490784645,-0.011178360085748136,-0.0029262718433979897
1772457088936221700,8.3412216796875,0.045319151151180265,-0.008547116533014923,0.00003884330620057881
1772457088946239500,8.351239501953126,0.05189794501960277,-0.0175195640723221,0.009622417614329606
1772457088956258600,8.361258544921874,0.039779052680730814,-0.008126607832312583,-0.0029982593673747032
1772457088966276600,8.371276611328126,0.04695756600797176,-0.003855268922355026,-0.015191696513490751
1772457088976295400,8.38129541015625,0.04052022643685341,0.004145063915476203,-0.009599986586812883
1772457088986313500,8.3913134765625,0.035732407638430594,-0.007615534771326929,-0.0160657668011263
1772457088996332500,8.40133251953125,0.04770224689543247,-0.0225706003841944,0.0011873283547349273
1772457089006350600,8.4113505859375,0.050996027743816376,-0.022216398385353386,-0.00987230072217062
1772457089016369700,8.42136962890625,0.032443302965164185,-0.010448767169564962,-0.01137570928875357
1772457089026387500,8.431387451171876,0.04456687147915363,-0.021282478536106646,-0.00455155322398059
1772457089036406500,8.441406494140624,0.04471592456102371,-0.009521825050376355,0.004907444856408983
1772457089046424600,8.451424560546876,0.042021278649568554,-0.010395192085113376,-0.010645878910552709
1772457089056442600,8.461442626953126,0.04127250610888004,-0.025011289800889788,0.01835188671061769
1772457089066461400,8.47146142578125,0.045609658530354494,-0.020024861424136904,-0.001956595694180578
1772457089076479700,8.481479736328126,0.040821255210042,-0.01600258363811299,0.0015102127667050809
1772457089086498600,8.49149853515625,0.03872632875740528,-0.011675769947562366,0.004062491065403446
1772457089096516600,8.5015166015625,0.03977729911506176,-0.0009788732358254491,-0.00027190314340405164
1772457089106535700,8.51153564453125,0.045015784290432924,-0.005991769494395702,-0.003939522272860631
1772457089116553500,8.521553466796876,0.031547815430164335,-0.011815817739069461,-0.0033937980236019936
1772457089126572500,8.531572509765626,0.02436930210292339,-0.00840303188720718,0.014671965222014114
1772457089136590600,8.541590576171876,0.04292494949102402,-0.005327843959257006,0.0051127216375432905
1772457089146609700,8.551609619140624,0.03993102837204933,-0.024341555579472332,-0.019357036032015457
1772457089156627700,8.561627685546876,0.04022971905767917,-0.01595856183329597,-0.003229328176891431
1772457089166646500,8.571646484375,0.04307166448533535,0.012639025489147752,0.026602723710797724
1772457089176664600,8.58166455078125,0.04875672438442707,-0.015752280405163764,-0.0023534586578141895
1772457089186683600,8.59168359375,0.03992576767504215,-0.013851232556812464,-0.014125026263203472
1772457089196701400,8.601701416015626,0.031245033091306683,-0.004244980625994503,0.006309767668694257
1772457089206719700,8.6117197265625,0.03618541210293769,0.0004928980834782124,0.005281986390380189
1772457089216738600,8.621738525390626,0.04770984567999839,0.008216825132723897,0.011439002049621195
1772457089226756600,8.631756591796876,0.026613866159319877,-0.01067700470117852,-0.009209754293365404
1772457089236775700,8.641775634765626,0.032300679624080654,-0.012485168367996811,0.010917297996766865
1772457089246793500,8.65179345703125,0.04756546877324581,-0.00643542160866782,-0.0074911138072144235
1772457089256812500,8.6618125,0.048014381584525104,-0.007339640439394861,-0.0019419826469384133
1772457089266830300,8.671830322265626,0.02946048776209354,-0.01013113432144746,-0.002516083607310429
1772457089276849400,8.681849365234376,0.03829085994958877,-0.008178849476203322,0.008827787504764274
1772457089286867700,8.69186767578125,0.04711830952763557,-0.004064527758862823,-0.007726730927685275
1772457089296886500,8.701886474609376,0.04128068941533565,-0.008511552029289304,-0.008386336480733007
1772457089306904600,8.711904541015626,0.04951192666590214,-0.0033986294623464344,-0.0007449640152510255
1772457089316923600,8.721923583984376,0.054601358759403223,-0.006267134103365242,-0.0003775554749649018
1772457089326941400,8.73194140625,0.025272388422489165,-0.014367000059224665,-0.0024694588534533977
1772457089336959500,8.74195947265625,0.03290858238935471,-0.010893314332980662,-0.013513068377319722
1772457089346978600,8.751978515625,0.05580605837404728,-0.000008365969546139239,0.017360437121009452
1772457089356996600,8.76199658203125,0.045478141105175014,-0.014028397488314658,0.00579702324043028
1772457089367015700,8.772015625,0.028267478585243224,-0.00858671789104119,-0.02012739935000427
1772457089377033500,8.782033447265626,0.05998889701664448,-0.010344868403673171,-0.015207332474039867
1772457089387052500,8.792052490234376,0.05834989763796329,0.009007920711487531,0.003193562743766233
1772457089397070600,8.802070556640626,0.039194530791044235,-0.0016007679938338697,0.0003122534201014787
1772457089407089400,8.81208935546875,0.04697393262088299,-0.0010096702328883111,-0.014010158578725531
1772457089417107500,8.822107421875,0.06238777485191822,-0.017553228879906235,0.0028616091093514114
1772457089427126500,8.83212646484375,0.04427870218753814,-0.016144512859452516,0.01493158427258022
1772457089437144600,8.84214453125,0.037246903854608535,-0.0013773893004283308,-0.0010584138785954564
1772457089447163600,8.85216357421875,0.045025136640667915,-0.009031045858748256,-0.011268029396887869
1772457089457181400,8.862181396484376,0.049660395225882524,-0.021078736124932766,-0.003898176482319832
1772457089467199500,8.872199462890626,0.04501636881232261,-0.01977483218582347,0.0025048863598611205
1772457089477218600,8.882218505859376,0.03633680327236652,-0.017274905128870158,0.012388621791498735
1772457089487236600,8.892236572265626,0.03963058412075043,0.005145929787401109,0.016462602365296335
1772457089497255700,8.902255615234376,0.04127659776210785,0.0018209866157732903,0.001999174460582435
1772457089507273700,8.912273681640626,0.02930675850510597,-0.015053210491407662,-0.005581699989316985
1772457089517292500,8.92229248046875,0.04127952037155628,-0.012764332369249313,-0.005382798150042072
1772457089527310600,8.932310546875,0.04083469921350479,-0.0038600546953268347,-0.006236793764028698
1772457089537329700,8.94232958984375,0.03993921167850494,0.0008072429959662258,-0.0019558285092003643
1772457089547347500,8.952347412109376,0.030661095723509786,-0.014103946942556648,0.0022582089892588557
1772457089557366500,8.962366455078126,0.037542087408900256,-0.020333342851419002,-0.003748949870513752
1772457089567384600,8.972384521484376,0.03873685015141964,-0.008766458372119814,0.012422387063782661
1772457089577403600,8.982403564453126,0.036193010887503624,-0.00330901495013386,0.0029962774728424847
1772457089587421700,8.992421630859376,0.04981061735153198,-0.007894369979016483,-0.004355108203273266
1772457089597439500,9.002439453125,0.051454292905330656,-0.018025449501536787,-0.011387445392319931
1772457089607458600,9.01245849609375,0.04188157791793346,-0.017874752451851963,0.01933011149247177
1772457089617476400,9.022476318359375,0.051311669564247125,-0.009403532432951032,0.007995775393722579
1772457089627495400,9.032495361328126,0.039490883389115335,-0.012067637075670063,-0.008029540666006505
1772457089637513700,9.042513671875,0.054153030470013616,-0.02035107943750918,0.0008653481250628828
1772457089647532500,9.052532470703126,0.05430149902999401,-0.010132467762008308,0.001328837450966239
1772457089657550600,9.062550537109376,0.042480128332972523,-0.007554470500163733,0.002141112815076485
1772457089667569700,9.072569580078126,0.0390390479683876,0.007064147966261953,-0.0030951621368993073
1772457089677587500,9.08258740234375,0.04248071285486221,-0.0006326353477314115,0.003197544799139723
1772457089687606500,9.0926064453125,0.03709200555384159,-0.008718527577165514,0.007872870533261448
1772457089697624300,9.102624267578125,0.03334814285039901,-0.016877722504828125,0.010181759396987036
1772457089707643400,9.112643310546876,0.04023147262334823,-0.0053951735744252795,0.0014039941795635968
1772457089717661700,9.12266162109375,0.0399281057626009,-0.019276801269501445,0.008801858479063958
1772457089727680500,9.132680419921876,0.042023032215237614,-0.005212930609006434,0.006675468309083953
1772457089737698600,9.142698486328126,0.0369388608187437,-0.008011438753735273,-0.0012988624378107488
1772457089747716600,9.152716552734375,0.04741524664759636,-0.012958558033406734,-0.009695537649467586
1772457089757735400,9.1627353515625,0.039784897899627684,0.0005057758313603698,0.0043352527253329755
1772457089767753500,9.17275341796875,0.0372439812451601,-0.0018289689928293227,-0.011152915117237715
1772457089777772500,9.1827724609375,0.035896658289432525,-0.015475710219796745,-0.010356604507239535
1772457089787790600,9.19279052734375,0.050857496055960655,-0.00972896499503404,-0.00475326807484962
1772457089797809400,9.202809326171876,0.05040858324468136,-0.009302282281871884,0.0038038583955261854
1772457089807827500,9.212827392578125,0.038739188238978386,-0.0035656748586334287,-0.003576324116811156
1772457089817846500,9.222846435546876,0.03904021701216698,-0.014186273197457194,0.014532547618169337
1772457089827864300,9.2328642578125,0.05939210016727447,-0.00860414394987747,-0.011055144698033108
1772457089837883400,9.24288330078125,0.02751695247888565,-0.014822488741762936,0.010914064860064536
1772457089847901700,9.252901611328125,0.039783144333958624,-0.002791621746215969,-0.0007666826567146927
1772457089857919500,9.26291943359375,0.04427110340297222,-0.01616371075026691,-0.004350879552727565
1772457089867938600,9.2729384765625,0.055944590061903,-0.01625095064230263,0.02260566256442107
1772457089877956400,9.282956298828125,0.03544774547815323,-0.017296477639861405,0.010022285385802387
1772457089887975400,9.292975341796875,0.04412555745244026,-0.01981627844106406,-0.0028246380998287347
1772457089897993500,9.302993408203125,0.036196518018841745,-0.025630207150522617,0.009368077527079731
1772457089908012300,9.31301220703125,0.028864275434613226,-0.021326098482124505,0.011999467210285365
1772457089918030600,9.323030517578125,0.04247895928919315,-0.0018129129071719943,0.004634043875662609
1772457089928049700,9.333049560546876,0.045015784290432924,-0.00985502079380676,-0.0019886804660316556
1772457089938067500,9.3430673828125,0.04022621192634106,0.0033650925189256664,0.002299445181945339
1772457089948086500,9.35308642578125,0.03229834153652191,-0.00984981489572674,-0.004129583218554034
1772457089958104300,9.363104248046875,0.03633680327236652,-0.009535177722293883,-0.0012688143594190477
1772457089968123400,9.373123291015625,0.04052373356819153,-0.010062854858208447,-0.0013680278170388192
1772457089978141400,9.383141357421875,0.03858253637254238,-0.008145860522054136,-0.0032441238872241225
1772457089988159500,9.393159423828125,0.03394260161221027,-0.008919018585328013,0.0012417162899393587
1772457089998178600,9.403178466796875,0.01718728164434433,-0.013912242029048501,0.005234694916242733
1772457090008196600,9.413196533203125,0.04607259986698627,-0.001625080451183021,-0.011102034313371404
1772457090018215400,9.42321533203125,0.05041501298546791,-0.0114083329167217,0.0003191489517688751
1772457090028233500,9.4332333984375,0.04039163162112236,-0.012627152388263493,-0.009029748950805515
1772457090038252500,9.44325244140625,0.033360417810082435,-0.013453282747790217,0.005481271822145208
1772457090048270300,9.453270263671875,0.05326397267580032,-0.011552307964675127,0.0003320814985781908
1772457090058289400,9.463289306640625,0.03560673543214798,-0.003500025743898004,-0.00005369381546042859
1772457090068307500,9.473307373046875,0.027228783187270164,-0.005618497468903661,-0.008089819485880435
1772457090078326500,9.483326416015625,0.03919862244427204,-0.00615282354131341,0.011917579346802085
1772457090088344600,9.493344482421875,0.056254971185326574,-0.0006203238554298877,0.012751500287139788
1772457090098363400,9.50336328125,0.04024082497358322,0.004040799823403358,0.006648717299476265
1772457090108381400,9.51338134765625,0.021690438282489774,-0.0008188055695965886,0.0056536509806755925
1772457090118400500,9.523400390625,0.051019408619403836,-0.02132721272697672,-0.014975606077397242
1772457090128418600,9.53341845703125,0.05176408950686454,-0.007927870389819144,0.006567843216145411
1772457090138436600,9.5434365234375,0.02902326538860798,-0.01593629520256072,0.0018712920309044419
1772457090148455400,9.553455322265625,0.04922434189617633,-0.012470463989209382,-0.008796378586348146
1772457090158473500,9.563473388671875,0.05026888251304626,0.004492452581040561,0.009090868020895869
1772457090168492500,9.573492431640625,0.038297289690375325,-0.014383786797244101,0.01895593528468162
1772457090178510300,9.58351025390625,0.03321078020632267,-0.012247852480784058,0.001192598184896633
1772457090188529400,9.593529296875,0.051317514783143996,-0.004312730366270989,-0.012241751533560455
1772457090198547500,9.60354736328125,0.03605331015586853,-0.009735467801056802,0.0028554716295097022
1772457090208566500,9.61356640625,0.047425768041610715,-0.009928834948688745,0.011575469644553959
1772457090218584600,9.62358447265625,0.047725043249130246,-0.010448127848748117,-0.004393458319129422
1772457090228603400,9.633603271484375,0.04308744657635689,-0.015121563019882886,-0.0051589810652192675
1772457090238621400,9.643621337890625,0.03725391811728477,-0.013825221332721412,-0.018624328710138797
1772457090248639500,9.653639404296875,0.03815174373984337,0.005016732183471322,0.006676217227755114
1772457090258658300,9.663658203125,0.032467268362641334,-0.013900862118508666,0.003217984798969701
1772457090268676600,9.673676513671875,0.06837269448041916,-0.012872231456823646,0.013649289377080275
1772457090278695700,9.68369580078125,0.05235971731245517,-0.004729257011599839,0.007707569569488987
1772457090288713500,9.69371337890625,0.05385667787194252,-0.014144607746507972,-0.0031828586866613474
1772457090298732500,9.703732666015625,0.030659926679730415,-0.01950027129445225,0.004721822623815387
1772457090308750300,9.713750244140625,0.036494039660692215,-0.010786967881675808,-0.00223954082140699
1772457090318769400,9.723769287109375,0.0408341146916151,0.00026034970292821525,-0.0016857793961651622
1772457090328787500,9.733787353515625,0.029757424882054326,-0.022761483313795176,0.0015844287803862243
1772457090338806300,9.74380615234375,0.03588847498297691,-0.011691844299528747,0.019497074690368026
1772457090348824600,9.753824462890625,0.03813186999559402,-0.012659702950995414,0.009945155895827338
1772457090358843600,9.76384375,0.04830722705125808,-0.011563231217488645,-0.014818707615789024
1772457090368861400,9.773861328125,0.031548399952054024,-0.0030014285719953473,0.008049259146628901
1772457090378879500,9.78387939453125,0.033494857844710346,-0.015027217533625662,0.018744064365979283
1772457090388898300,9.793898193359375,0.04382394415736198,-0.005007836490962654,0.00008808014225214719
1772457090398916600,9.80391650390625,0.040683308044075966,-0.008356379733886568,-0.005313870232831686
1772457090408935400,9.813935302734375,0.043376200389862056,-0.021397939875628796,0.0027255251069087535
1772457090418953500,9.823953369140625,0.05025719207525253,-0.013319847360160201,0.0013731697830371558
1772457090428972500,9.83397265625,0.03559562951624393,-0.0026750096292234957,-0.003932060485612601
1772457090438990600,9.843990478515625,0.0493652116715908,-0.015298618353530764,0.004611658513918519
1772457090449009400,9.854009521484375,0.04786883563399315,-0.007520549964252859,-0.0037318069394677877
1772457090459027500,9.86402734375,0.026022330006957053,-0.009190382872615008,0.007565896076476201
1772457090469046500,9.874046630859375,0.03649696227014065,-0.019215481270011513,0.015043565880227833
1772457090479064600,9.884064697265625,0.04547755658328533,-0.01590792762460187,-0.013993947229441254
1772457090489083600,9.894083740234375,0.037699908319115634,-0.006425137676671147,-0.004830050504952669
1772457090499101400,9.904101318359375,0.034416064342856406,-0.01998979011075571,-0.007277772450633347
1772457090509119500,9.914119384765625,0.049830491095781325,-0.01588741455953568,-0.005287575880950316
1772457090519138600,9.924138671875,0.03831190273761749,0.0014160042777657507,-0.001633081094548106
1772457090529156400,9.93415625,0.03741758424639702,0.002232983216457069,-0.010753248275164514
1772457090539175400,9.944175537109375,0.036519174101948736,-0.0091413743654266,-0.00182672223681584
1772457090549193500,9.954193359375,0.03666998074948787,-0.021294041109737007,-0.01567761686691083
1772457090559212500,9.964212646484375,0.04220540304481983,-0.02098601634018123,-0.02103454992333427
1772457090569230600,9.974230712890625,0.039512510699033734,-0.020096903747040776,-0.014539552747691049
1772457090579249400,9.98424951171875,0.045799628144502634,-0.019137977320700883,0.013221145359193906
1772457090589267500,9.994267333984375,0.04191080401241779,-0.014938315407466143,0.018856648761825634
1772457090599286500,10.00428662109375,0.044908232262730594,-0.012659922146704047,0.0018460936575662344
1772457090609304300,10.01430419921875,0.04760170913040638,-0.0074471559344790874,0.0025990217835642395
1772457090619322600,10.024322509765625,0.04221884704828262,-0.008532594817318022,0.00046306006764061745
1772457090629341400,10.034341552734375,0.04312017980217933,-0.013020791348349303,-0.013116744269803166
1772457090639359500,10.044359375,0.04222586131095886,-0.012757993960008025,-0.000052570437453687186
1772457090649378600,10.054378662109375,0.04941431151032447,-0.010606807275488971,0.021706412169756367
1772457090659396400,10.064396240234375,0.053606502503156656,-0.0030110183842480182,0.00028593166875652966
1772457090669415400,10.07441552734375,0.038191491228342055,-0.0005246997275389731,-0.0004038680931553244
1772457090679433500,10.08443359375,0.03908990137279034,0.00237577095432207,0.022172477045236155
1772457090689452300,10.094452392578125,0.03445405826568603,-0.0016745821487158536,-0.0037437348392792046
1772457090699470600,10.104470703125,0.035652328139543533,0.009749532859027386,-0.0010693005987908691
1772457090709489700,10.11448974609375,0.039844519132375716,-0.022544881421048192,0.0006954714508727193
1772457090719507500,10.124507568359375,0.030565234133601186,-0.02095268032616004,-0.0023212277554906903
1772457090729526500,10.134526611328125,0.044181087031960484,-0.006196900145057588,-0.01665436207773164
1772457090739544300,10.14454443359375,0.017247487398982048,-0.014562906223814934,0.01255661703585647
1772457090749562600,10.154562744140625,0.02143617126047611,-0.00951983402268961,-0.0031524635483976453
1772457090759581700,10.164581787109375,0.051067339414358134,-0.0065026050933636725,-0.004922158368350938
1772457090769600000,10.17460009765625,0.04597615375518799,-0.013037011830788104,-0.006360767203569412
1772457090779618800,10.184618896484375,0.03489946394562721,-0.01316706795124337,0.01142985062878579
1772457090789636900,10.194636962890625,0.0464157142162323,-0.027616156803350896,0.011864597917394712
1772457090799656000,10.204656005859375,0.0404290410220623,-0.016607490728702396,0.003041952378628775
1772457090809673700,10.214673828125,0.040725978142023084,-0.022946849818062037,-0.0028603761334903537
1772457090819692800,10.22469287109375,0.046262569481134413,-0.024253365839365867,0.013200458764191717
1772457090829710800,10.2347109375,0.04701075749993324,-0.00984933997169137,0.016577607047092168
1772457090839729700,10.244729736328125,0.05284954665601253,-0.005072864551190287,-0.006194525524880736
1772457090849748000,10.254748046875,0.042377837002277374,-0.009982702294085174,0.004943749145651236
1772457090859766800,10.264766845703125,0.055847559428215024,0.007984715143591165,0.006327093262830749
1772457090869784800,10.274784912109375,0.03698971422314644,0.011831325835455209,-0.004774950183695182
1772457090879802600,10.284802734375,0.04447159441113472,-0.010730177926830948,-0.028340726484544575
1772457090889821700,10.29482177734375,0.040433132675290105,-0.006745273009128868,-0.0006811141319572926
1772457090899840000,10.304840087890625,0.019933950003981588,-0.036160442058462645,0.007483094897540286
1772457090909858800,10.31485888671875,0.03638882572054863,-0.027147516378294673,-0.0009134707162622361
1772457090919876900,10.324876953125,0.05343991376459598,-0.009374982191901653,-0.0039040765001438554
1772457090929896000,10.33489599609375,0.041620296633243556,-0.00931784517718479,-0.0034140827598050233
1772457090939913700,10.344913818359375,0.03219371211826801,0.005661752088740468,0.002308487004926428
1772457090949932800,10.354932861328125,0.06406301458775997,-0.0004677819085307419,-0.00010335990977473557
1772457090959950800,10.364950927734375,0.03593348316848278,0.006132968063373118,0.007976422239281236
1772457090969969000,10.374968994140625,0.03593582125604153,0.0062946796974167225,0.007870404581539332
1772457090979987000,10.384987060546875,0.05045242238640785,-0.011664883227366953,0.013103044538013637
1772457090990005800,10.395005859375,0.04551496598422527,-0.032989556937385346,-0.006601462357956916
1772457091000023800,10.40502392578125,0.04072831622958183,-0.01837808059779927,0.0026630817294120788
1772457091010043000,10.41504296875,0.02546177351474762,-0.009677819329686463,0.009671042529027908
1772457091020060700,10.425060791015625,0.042815643897652626,-0.01097343036448583,0.01653606032715179
1772457091030079700,10.435079833984375,0.048648003312945366,0.0025815409258008,-0.00813808820755221
1772457091040097800,10.445097900390625,0.03024316257238388,0.0031830870155245064,0.020152177598234264
1772457091050116900,10.455116943359375,0.04340893361568451,-0.028474381067883223,-0.0008067498056218027
1772457091060135000,10.465135009765625,0.06331073491573333,-0.005569543760642409,0.012477724847057834
1772457091070153700,10.47515380859375,0.03652560384273529,-0.015523604482132941,0.0030880839421413837
1772457091080171800,10.485171875,0.028147651597857475,-0.021251480609644203,0.011260120085068047
1772457091090190800,10.49519091796875,0.040568157231807705,-0.024318503497447817,0.006984141532611101
1772457091100208600,10.505208740234375,0.04835048167109489,-0.01015212231054902,-0.007792197379330173
1772457091110227000,10.51522705078125,0.027548516660928724,-0.004970573220495134,-0.014906248901924117
1772457091120245800,10.525245849609375,0.05119008901119232,-0.007633527085743844,-0.004860902300942689
1772457091130263800,10.535263916015625,0.044454643276333805,-0.005724789121281356,0.00777141945278272
1772457091140283000,10.545282958984375,0.03128770318925381,0.0011214783105999231,0.0022893439130391925
1772457091150300700,10.55530078125,0.0347299525976181,-0.007688673072773963,-0.009216375830397009
1772457091160319700,10.56531982421875,0.04400689950883388,-0.012790270528104155,0.0013823851359542458
1772457091170337800,10.575337890625,0.03517477375566959,-0.010403302326332776,0.009605996202491224
1772457091180356900,10.58535693359375,0.03726327046751976,-0.017764862336590886,-0.006255388866644352
1772457091190375000,10.595375,0.03052373307943344,-0.005693078808765858,-0.0041179201802238816
1772457091200394000,10.60539404296875,0.04248948068320751,0.0027725517195649444,0.0063472227354068305
1772457091210411800,10.615411865234375,0.056256724750995635,-0.009478972289338708,-0.0006767393509391695
1772457091220429800,10.625429931640625,0.04308569301068783,-0.013455310308095067,-0.004189414513856173
1772457091230448600,10.63544873046875,0.048021980369091034,-0.019678112079389392,-0.004757944249967113
1772457091240467000,10.645467041015625,0.02736965296268463,-0.008411397856753319,0.01365593831357546
1772457091250486000,10.655486083984375,0.04188157791793346,-0.007881638361606746,0.009687701402883976
1772457091260503800,10.66550390625,0.03425415177941322,-0.013290036743786185,-0.010131527047092094
1772457091270523000,10.67552294921875,0.04502922829389572,-0.014356259469501673,-0.005180252182111144
1772457091280540700,10.685540771484375,0.0451782813757658,-0.01601641123406589,0.004803701354144141
1772457091290559700,10.695559814453125,0.058792965230345724,-0.018019184157531707,-0.0037959856163244693
1772457091300577800,10.705577880859375,0.04936579619348049,0.0022284349055029453,0.0043465595706366
1772457091310596600,10.7155966796875,0.03215980984866619,-0.00021824586056172845,0.007061745946621522
1772457091320615000,10.725614990234375,0.038438159465789795,-0.010332465579826384,0.011910656415671109
1772457091330634000,10.735634033203125,0.04382569772303104,-0.027344920380227265,-0.0008190064989961683
1772457091340651800,10.74565185546875,0.03664133917689323,-0.013820947016403079,-0.005001132755540311
1772457091350669800,10.755669921875,0.053096799415349956,-0.029740930404979733,0.01091643034708686
1772457091360689000,10.76568896484375,0.041571781316399575,-0.031204755879845468,0.012687102414574474
1772457091370706700,10.775706787109375,0.03304126885831356,-0.007649893698655068,-0.017049087883206082
1772457091380725800,10.785725830078125,0.041268998977541924,0.00785513394717127,-0.01905756902825087
1772457091390743800,10.795743896484375,0.047105450046062466,0.0020382095630280673,-0.00018753106188960372
1772457091400763000,10.805762939453125,0.04905483054816723,-0.015108612206764519,0.01053060936727561
1772457091410781000,10.815781005859375,0.03873626562952995,-0.008716536549478768,-0.006813972597476094
1772457091420799700,10.8257998046875,0.020783844831585883,-0.02104196604480967,-0.011449897902971132
1772457091430817800,10.83581787109375,0.025424364113807676,-0.029081644512340424,0.020790722096944228
1772457091440836900,10.8458369140625,0.0450257211625576,-0.01894983433745801,-0.012294586832495406
1772457091450854700,10.855854736328125,0.03798983117640018,-0.013991061152610926,-0.006149709135619923
1772457091460873000,10.865873046875,0.042480128332972523,-0.007886716395523399,0.0018973763202317058
1772457091470891800,10.875891845703125,0.04517009806931019,0.00349189723636955,-0.004095406954316422
1772457091480909800,10.885909912109375,0.05369885696172714,-0.010792356442846358,0.009934123045159502
1772457091490929000,10.895928955078125,0.051154433175921436,0.0027735015676356852,0.004895443891361356
1772457091500946700,10.90594677734375,0.032004327026009555,-0.017298322537075726,-0.014379320684680714
1772457091510965800,10.9159658203125,0.018540449818968772,-0.010329835231322795,0.0035440110160969195
1772457091520983800,10.92598388671875,0.03156184395551681,-0.014452066260483116,0.016335258791735394
1772457091531003000,10.9360029296875,0.06014554888308048,-0.0009354724855162202,0.0025908932760357857
1772457091541021000,10.94602099609375,0.04039104709923267,-0.009235811183229088,0.002397854921966791
1772457091551039700,10.956039794921875,0.03904138605594635,-0.006525876371096819,0.006447532171569764
1772457091561057800,10.966057861328125,0.05175765976607799,-0.0074628466939553615,0.017990460386546326
1772457091571076900,10.976076904296875,0.040081250497698784,-0.009319087286200374,-0.0000974781582597643
1772457091581094700,10.9860947265625,0.04322422469854355,-0.018067918670084327,0.0028881135237868874
1772457091591113000,10.996113037109374,0.05160509955286979,-0.0005205350090749561,-0.004541826414410024
1772457091601132000,11.006132080078125,0.03140519208908081,-0.019000358948297796,-0.01660318901292048
1772457091611149800,11.01614990234375,0.038733927541971205,-0.012352993355691433,-0.006524634262081236
1772457091621169000,11.0261689453125,0.05070259775519371,-0.01094838725477457,0.02338978041312657
1772457091631186700,11.036186767578124,0.04666004436612129,-0.002207392117474228,-0.001610229941923171
1772457091641205800,11.046205810546875,0.04247019146084785,-0.00011224646912887692,0.005588495056284591
1772457091651223800,11.056223876953124,0.061624973785877224,-0.011594685801677405,-0.006235241127759218
1772457091661242600,11.06624267578125,0.04656242921054363,-0.01991140937861055,-0.0010561762557365
1772457091671261000,11.076260986328125,-0.06219371358454227,0.03141801503803581,-0.006580912760272621
1772457091681280000,11.086280029296875,-0.5917804825127124,0.1708907100709155,0.022575632752338422
1772457091691297800,11.0962978515625,-0.18071955524384975,0.04644753412660211,0.021622971670003606
1772457091701315800,11.10631591796875,0.3628939854711294,-0.07247231181897222,-0.010791443127393722
1772457091711334700,11.116334716796874,1.0438462048649788,-0.20657887670882044,-0.017093566345749423
1772457091721352700,11.126352783203124,0.7938795103937387,-0.2107230821077712,0.0070678194943815465
1772457091731371800,11.136371826171874,0.47872342765331266,-0.19205157152134925,-0.010886528399167582
1772457091741389800,11.146389892578124,-0.8853016565501689,0.1790335383856669,0.014027575504407285
1772457091751409000,11.156408935546875,-1.5410007767438887,0.43406347106322646,-0.002060905452026054
