time,seconds_elapsed,z,y,x
1772457080662209000,0.067208984375,-0.003204049076884985,0.005471197888255119,0.07806816697120667
1772457080672227800,0.077227783203125,-0.001987517112866044,0.0051779840141534805,-0.019421102479100227
1772457080682246000,0.087245849609375,-0.001614940818399191,0.004372910596430302,-0.05903588980436325
1772457080692265000,0.097264892578125,-0.0006500775925815105,0.0052259210497140884,0.012971725314855576
1772457080702283000,0.107282958984375,-0.00024208133982028812,0.004453870467841625,0.03969574719667435
1772457080712302000,0.117302001953125,-0.0013022858183830976,0.004790760576725006,-0.012546151876449585
1772457080722320000,0.12731982421875,-0.0013590110465884209,0.0026293389964848757,-0.02839409001171589
1772457080732339000,0.1373388671875,-0.0011108045000582933,0.0015789881581440568,0.009863549843430519
1772457080742356500,0.1473564453125,0.0003203782835043967,0.004289819858968258,0.019629893824458122
1772457080752375600,0.15737548828125,-0.0021973741240799427,0.005095692351460457,-0.010902182199060917
1772457080762393600,0.1673935546875,-0.00035499935620464385,0.0036125779151916504,-0.014401310123503208
1772457080772412400,0.177412353515625,-0.0005438174703158438,0.0033073797821998596,0.008048338815569878
1772457080782430700,0.1874306640625,0.0004005394293926656,0.005786249879747629,0.009602559730410576
1772457080792449500,0.197449462890625,-0.0034916705917567015,0.003846403444185853,-0.009291502647101879
1772457080802467600,0.207467529296875,-0.0011150655336678028,0.004798217210918665,-0.006924485322088003
1772457080812486700,0.217486572265625,-0.0022623552940785885,0.006616623606532812,0.005547098349779844
1772457080822504400,0.22750439453125,-0.0010370349045842886,0.0039175101555883884,0.0046970173716545105
1772457080832523500,0.2375234375,-0.0009323726990260184,0.005037635564804077,-0.003147589974105358
1772457080842541600,0.24754150390625,-0.0007749798824079335,0.004649613052606583,-0.0035814191214740276
1772457080852560600,0.257560546875,-0.0009440905996598303,0.00401684595271945,0.0013161342358216643
1772457080862578700,0.26757861328125,0.001484445994719863,0.005274123977869749,0.002514823107048869
1772457080872597500,0.277597412109375,-0.0020783308427780867,0.004078897647559643,-0.0021291973534971476
1772457080882615600,0.287615478515625,-0.004517520312219858,0.00205276464112103,-0.00045833003241568804
1772457080892634600,0.297634521484375,-0.0014804512029513717,0.005114334635436535,0.0011792477453127503
1772457080902652400,0.30765234375,-0.0007368966471403837,0.003808053908869624,0.0002801645314320922
1772457080912671500,0.31767138671875,-0.0013630058383569121,0.006457899231463671,-0.002523345174267888
1772457080922689800,0.327689697265625,-0.00006950850365683436,0.0029979203827679157,-0.001100950757972896
1772457080932708600,0.33770849609375,-0.0015792545164003968,0.005053082015365362,0.0019108180422335863
1772457080942726700,0.3477265625,-0.0020003002136945724,0.004199538845568895,-0.000544350128620863
1772457080952745700,0.357745849609375,-0.0021726067643612623,0.0031936627347022295,-0.0028067054226994514
1772457080962763500,0.367763427734375,-0.001062334980815649,0.005328186322003603,-0.0012112056137993932
1772457080972782600,0.377782470703125,0.0014884406700730324,0.003183542750775814,0.00245090713724494
1772457080982800400,0.38780029296875,-0.0007163903210312128,0.003431216813623905,0.0008008125587366521
1772457080992819500,0.3978193359375,-0.0011885687708854675,0.002403236459940672,0.0008578042034059763
1772457081002837800,0.407837646484375,-0.001115864492021501,0.005576925817877054,-0.0015363775892183185
1772457081012856600,0.417856689453125,-0.0026431872975081205,0.003619768423959613,-0.0006793724023737013
1772457081022874600,0.42787451171875,-0.0014290522085502744,0.003969175275415182,-0.0015731292078271508
1772457081032893700,0.437893798828125,-0.00033928672201000154,0.006641923915594816,-0.001529187080450356
1772457081042911500,0.447911376953125,-0.0005419532535597682,0.003418167121708393,0.0015504923649132252
1772457081052930600,0.4579306640625,0.00023329291434492916,0.005501824431121349,-0.002282062778249383
1772457081062949600,0.46794970703125,-0.0004423510399647057,0.0055028898641467094,-0.00008415588672505692
1772457081072967400,0.477967529296875,-0.0019020296167582273,0.005361742340028286,0.0006511429091915488
1772457081082985700,0.48798583984375,-0.0014181332662701607,0.002718821167945862,-0.0011374361347407103
1772457081093004500,0.498004638671875,-0.0014199974248185754,0.004581169690936804,-0.00041438787593506277
1772457081103022600,0.508022705078125,-0.0007126618875190616,0.004856540355831385,-0.0003528688393998891
1772457081113041700,0.518041748046875,-0.0012330436147749424,0.006444050930440426,-0.0015646071406081319
1772457081123059500,0.5280595703125,-0.0010713896481320262,0.004332430195063353,0.0012982910266146064
1772457081133078500,0.53807861328125,-0.0006617955514229834,0.004402738064527512,-0.0018636800814419985
1772457081143096300,0.548096435546875,-0.0008484831196255982,0.0054424358531832695,-0.0008753810543566942
1772457081153115400,0.558115478515625,-0.0015845808666199446,0.003334810258820653,-0.0005454153870232403
1772457081163134500,0.568134521484375,-0.001776328426785767,0.005538309924304485,-0.002180329989641905
1772457081173152500,0.578152587890625,-0.0013646037550643086,0.0040765004232525826,-0.0025537051260471344
1772457081183171600,0.588171630859375,-0.00126713200006634,0.002320678671821952,0.0004844290087930858
1772457081193189600,0.598189697265625,0.0000010652644277797663,0.0032325449865311384,0.000990695902146399
1772457081203208400,0.60820849609375,-0.001005609636195004,0.006417952012270689,-0.0013843111228197813
1772457081213226500,0.6182265625,0.0005078648100607097,0.0009917612187564373,0.00010865696822293103
1772457081223245600,0.62824560546875,-0.003510046284645796,0.004906075540930033,-0.0005906891310587525
1772457081233263600,0.638263671875,0.00047617321251891553,0.00493217445909977,-0.0012444951571524143
1772457081243282400,0.648282470703125,-0.003063700394704938,0.006227003410458565,0.0012594088912010193
1772457081253300700,0.65830078125,-0.003397394670173526,0.004524177871644497,-0.0015126754296943545
1772457081263319600,0.668319580078125,-0.002572879893705249,0.005634716246277094,0.0012918994762003422
1772457081273337600,0.678337646484375,-0.003111371072009206,0.0034205641131848097,-0.0014708638191223145
1772457081283356700,0.688356689453125,-0.0015635418239980936,0.004435494542121887,0.00227806787006557
1772457081293374500,0.69837451171875,-0.0025832662358880043,0.005317267496138811,-0.003230947069823742
1772457081303393500,0.7083935546875,-0.0022594258189201355,0.004000334069132805,-0.0009925601771101356
1772457081313411600,0.71841162109375,-0.00012064119800925255,0.0028522454667836428,0.0005643238546326756
1772457081323430700,0.7284306640625,-0.0009470200748182833,0.0017715347930788994,-0.000434361572843045
1772457081333448700,0.73844873046875,-0.0011291803093627095,0.002858637133613229,-0.0009390306076966226
1772457081343467500,0.748467529296875,-0.0038256309926509857,0.004960670135915279,0.0004665858286898583
1772457081353485600,0.758485595703125,-0.0013201289111748338,0.0037148434203118086,-0.00035180358099751174
1772457081363504600,0.768504638671875,-0.0005336974863894284,0.0023939155507832766,-0.000651675509288907
1772457081373522400,0.7785224609375,-0.002092445734888315,0.004863464739173651,0.0018698053900152445
1772457081383541500,0.78854150390625,-0.0020748688839375973,0.003655987558886409,0.001517735538072884
1772457081393559600,0.7985595703125,-0.0036304211243987083,0.004908738657832146,0.0015840481501072645
1772457081403578600,0.80857861328125,-0.0004689826746471226,0.0033044503070414066,-0.0004189152386970818
1772457081413596700,0.8185966796875,-0.0005893575726076961,0.0047148605808615685,-0.0009755159262567759
1772457081423615500,0.828615478515625,0.0015603461069986224,0.0023278691805899143,0.0018554243724793196
1772457081433633500,0.838633544921875,-0.0034525219816714525,0.00574896577745676,-0.0034967304673045874
1772457081443652600,0.848652587890625,-0.002368881832808256,0.003882089862599969,-0.003433613572269678
1772457081453670400,0.85867041015625,-0.0013928331900388002,0.003941744565963745,-0.0002663161139935255
1772457081463689500,0.868689453125,-0.0007454187725670636,0.002645584288984537,0.0015065502375364304
1772457081473707800,0.878707763671875,0.0011768508702516556,0.004547613672912121,0.0000679106087773107
1772457081483726600,0.8887265625,-0.0011696603614836931,0.0051987566985189915,-0.0010881676571443677
1772457081493744600,0.89874462890625,0.000278300343779847,0.0038165762089192867,0.0005163869354873896
1772457081503763700,0.908763671875,0.0005060005933046341,0.004552141297608614,-0.0014053500490263104
1772457081513781500,0.918781494140625,0.0022535668686032295,0.005344964098185301,0.0003046656202059239
1772457081523800600,0.928800537109375,0.000027696874894900247,0.003570500062778592,0.0013598100049421191
1772457081533818400,0.938818359375,-0.0004114583716727793,0.00600436283275485,0.0025427863001823425
1772457081543837400,0.94883740234375,-0.0012000204296782613,0.0051987566985189915,0.0008370315190404654
1772457081553855700,0.958855712890625,-0.0008197209681384265,0.003930026665329933,0.0009054747642949224
1772457081563874600,0.96887451171875,-0.0008506136364303529,0.0046813045628368855,-0.0012130698887631297
1772457081573892600,0.978892578125,-0.0010490191634744406,0.0032924660481512547,-0.0015472965314984322
1772457081583911700,0.98891162109375,0.00037044569035060704,0.003736947663128376,-0.0005041363765485585
1772457081593929500,0.998929443359375,0.0002902845444623381,0.002722017001360655,-0.0020682108588516712
1772457081603948500,1.008948486328125,-0.000355532014509663,0.0026527747977524996,0.000526773277670145
1772457081613966600,1.018966552734375,-0.00038828887045383453,0.005053082015365362,0.00033955302205868065
1772457081623985400,1.0289853515625,-0.0013148026773706079,0.003608050523325801,0.00009267800487577915
1772457081634003700,1.039003662109375,-0.002270344877615571,0.0037521275226026773,0.0003677825443446636
1772457081644022500,1.0490224609375,-0.0019065570086240768,0.00549170421436429,-0.00018695391190703958
1772457081654040600,1.05904052734375,-0.0023188143968582153,0.004246410448104143,0.0004926847759634256
1772457081664059600,1.0690595703125,-0.000987766426987946,0.0033784860279411077,-0.0011494202772155404
1772457081674077400,1.079077392578125,-0.002575543010607362,0.004632302559912205,-0.0021142836194485426
1772457081684096500,1.089096435546875,0.0002990729990415275,0.005543636158108711,-0.002369148191064596
1772457081694114600,1.099114501953125,-0.002353968098759651,0.0023065637797117233,0.0314740352332592
1772457081704133600,1.109133544921875,-0.002439455594867468,0.003936418332159519,0.042569298297166824
1772457081714151700,1.119151611328125,-0.003625893732532859,0.0018660769565030932,-0.012569587677717209
1772457081724170500,1.12917041015625,-0.002801911672577262,0.00512871565297246,-0.037404630333185196
1772457081734188500,1.1391884765625,0.00145222176797688,0.005674929823726416,0.0041127195581793785
1772457081744208100,1.1492080078125,0.00043809000635519624,0.003373159794136882,0.009529589675366879
1772457081754226000,1.159225830078125,0.0005523395957425237,0.003556119045242667,-0.03196219354867935
1772457081764245000,1.169244873046875,0.0002623213513288647,0.0043707797303795815,-0.030541397631168365
1772457081774263000,1.179262939453125,-0.000526773277670145,0.005591040477156639,0.021734589710831642
1772457081784281900,1.18928173828125,-0.0009052084642462432,0.003690076060593128,0.018643992021679878
1772457081794300200,1.199300048828125,-0.0037063213530927896,0.004713528789579868,-0.018641328439116478
1772457081804319200,1.2093193359375,-0.00016165387933142483,0.005046423990279436,-0.012439358979463577
1772457081814337000,1.2193369140625,-0.0015124091878533363,0.003733751829713583,0.013688648119568825
1772457081824356000,1.229356201171875,-0.001439971150830388,0.006636863574385643,0.001975532853975892
1772457081834374000,1.239373779296875,-0.003419232554733753,0.004594219382852316,-0.012413525953888893
1772457081844393000,1.24939306640625,-0.0015811186749488115,0.0018290589796379209,-0.004257329273968935
1772457081854411000,1.259410888671875,-0.0022234732750803232,0.004564924165606499,0.007754858583211899
1772457081864429800,1.269429931640625,-0.0019534286111593246,0.005811550188809633,-0.00027510453946888447
1772457081874448100,1.2794482421875,-0.0025214808993041515,0.004043211229145527,-0.0038892803713679314
1772457081884467200,1.28946728515625,-0.0007811051327735186,0.005109540652483702,-0.0015254586469382048
1772457081894485000,1.299485107421875,-0.0010626012226566672,0.0054123420268297195,0.005307679995894432
1772457081904504000,1.309504150390625,-0.0009142631897702813,0.004464523401111364,-0.00044821001938544214
1772457081914522000,1.319522216796875,-0.0025814019609242678,0.004652542527765036,-0.003382480936124921
1772457081924541000,1.329541015625,-0.002823217073455453,0.004607801325619221,-0.0011952266795560718
1772457081934559200,1.339559326171875,-0.001273257308639586,0.003611779073253274,0.004446680191904306
1772457081944578000,1.349578125,-0.0034293525386601686,0.005496231839060783,-0.004012318328022957
1772457081954596000,1.35959619140625,0.0008199872681871057,0.0021049624774605036,0.00044767739018425345
1772457081964615200,1.369615234375,-0.0019590212032198906,0.0019177423091605306,0.003585680155083537
1772457081974633000,1.379633056640625,-0.0011347729014232755,0.004797684494405985,0.0011201255256310105
1772457081984652000,1.389652099609375,-0.0024557008873671293,0.005091431550681591,-0.00020133497309871018
1772457081994670000,1.399670166015625,-0.000818123109638691,0.005781989078968763,0.0004295678809285164
1772457082004689000,1.40968896484375,-0.0011552792275324464,0.0033848776947706938,0.0015195996966212988
1772457082014707200,1.419707275390625,-0.0020096213556826115,0.0033401367254555225,0.0024522386956959963
1772457082024726300,1.429726318359375,0.00040080572944134474,0.003739344421774149,-0.0018346516881138086
1772457082034744000,1.439744140625,-0.002272741636261344,0.0037555897142738104,0.0011267834343016148
1772457082044763100,1.44976318359375,-0.0027598338201642036,0.005600361619144678,-0.0008950884221121669
1772457082054781000,1.459781005859375,-0.00039281626231968403,0.005562278442084789,0.0008825715631246567
1772457082064800000,1.469800048828125,-0.0009992180857807398,0.003367833560332656,-0.00236275652423501
1772457082074818000,1.479818115234375,-0.00532525684684515,0.004853610880672932,0.0020479708909988403
1772457082084836000,1.489836181640625,-0.0009065400226972997,0.005468534771353006,0.0032503881957381964
1772457082094855200,1.499855224609375,-0.0011315771844238043,0.0041579934768378735,0.0006231797160580754
1772457082104873000,1.509873046875,-0.0015904398169368505,0.0036538569256663322,-0.002516953507438302
1772457082114892000,1.51989208984375,-0.003222158644348383,0.004219512455165386,-0.0003307645965833217
1772457082124910000,1.52991015625,0.0004596615908667445,0.005046157632023096,0.00032091091270558536
1772457082134929000,1.539928955078125,-0.0015936355339363217,0.00501073757186532,0.0006940197781659663
1772457082144947000,1.549947021484375,-0.0020839234348386526,0.006397712044417858,0.0008018778171390295
1772457082154966000,1.559966064453125,-0.0021260015200823545,0.004602208733558655,0.0011664645280689
1772457082164984000,1.569984130859375,-0.002395247109234333,0.004698615055531263,0.0014120079576969147
1772457082175003100,1.580003173828125,-0.0015374429058283567,0.006770554464310408,-0.0011147991754114628
1772457082185021200,1.590021240234375,-0.0018093516118824482,0.003858920419588685,-0.0009305084822699428
1772457082195040000,1.6000400390625,-0.0022413162514567375,0.005197957623749971,-0.00009267800487577915
1772457082205058000,1.61005810546875,-0.005340436939150095,-0.0007691209320910275,0.057977281510829926
1772457082215077000,1.6200771484375,-0.0041398839093744755,0.0033401367254555225,0.060025785118341446
1772457082225095000,1.630094970703125,-0.0021134845446795225,0.0022567627020180225,-0.048772066831588745
1772457082235114000,1.640114013671875,-0.0025539714843034744,0.005784652195870876,-0.06969679147005081
1772457082245132000,1.650132080078125,0.0011400992516428232,0.0057500312104821205,0.010719222947955132
1772457082255151000,1.660151123046875,-0.0020117517560720444,0.005542837083339691,0.018315624445676804
1772457082265169200,1.670169189453125,-0.0009195895399898291,0.0033396040089428425,-0.02533651515841484
1772457082275188000,1.68018798828125,-0.0023310647811740637,0.004234692547470331,-0.01871429942548275
1772457082285206000,1.6902060546875,-0.0017457021167501807,0.0041486723348498344,0.01552356593310833
1772457082295225000,1.70022509765625,-0.003609115956351161,0.005566539242863655,0.0032945964485406876
1772457082305243100,1.7102431640625,0.0003222425002604723,0.00287461606785655,-0.013382650911808014
1772457082315262000,1.720261962890625,-0.002365685999393463,0.004641090985387564,-0.002133724745362997
1772457082325280000,1.730280029296875,-0.0009973538108170033,0.004058124963194132,0.008261391893029213
1772457082335299000,1.740299072265625,-0.0031907332595437765,0.004395014606416225,-0.0021470405627042055
1772457082345317000,1.750317138671875,-0.0029356025625020266,0.003850398352369666,-0.007619303651154041
1772457082355336000,1.7603359375,-0.0009169263648800552,0.0046602655202150345,0.0015896408585831523
1772457082365354000,1.77035400390625,-0.002537459833547473,0.003052515210583806,0.004470914602279663
1772457082375373000,1.780373046875,-0.0008884305134415627,0.001788046327419579,0.0011856392957270145
1772457082385391000,1.79039111328125,-0.003716707695275545,0.005829127039760351,-0.004918059334158897
1772457082395410200,1.80041015625,-0.0005150553770363331,0.002683933824300766,-0.0006647250265814364
1772457082405428200,1.81042822265625,-0.002499643014743924,0.003908987622708082,-0.0014383733505383134
1772457082415447000,1.820447021484375,-0.0031960594933480024,0.0022660838440060616,0.0002854908525478095
1772457082425465000,1.830465087890625,-0.002532399957999587,0.006462160497903824,-0.0033712955191731453
1772457082435484200,1.840484130859375,-0.002517486223950982,0.005126585252583027,-0.0025864620693027973
1772457082445502000,1.850501953125,-0.0015070828376337886,0.0031577101908624172,0.0012314456980675459
1772457082455521000,1.86052099609375,0.0005102616851218045,0.00526666734367609,-0.0013233247445896268
1772457082465539000,1.8705390625,-0.001463673310354352,0.004189152270555496,-0.001416269107721746
1772457082475558100,1.88055810546875,-0.00041518680518493056,0.007035539019852877,0.0009097357979044318
1772457082485576200,1.890576171875,-0.001377653214149177,0.004356931429356337,-0.00030892668291926384
1772457082495595000,1.900594970703125,-0.002388855442404747,0.0022085595410317183,-0.00012410330236889422
1772457082505613000,1.910613037109375,-0.0023582291323691607,0.002852511825039983,-0.0010434264549985528
1772457082515632000,1.920632080078125,0.001110005541704595,0.004338821861892939,-0.0035087147261947393
1772457082525650000,1.93064990234375,0.0004753742541652173,0.004247741773724556,-0.0002902845444623381
1772457082535669000,1.9406689453125,-0.0014495585346594453,0.0046639940701425076,0.0011153318919241428
1772457082545687000,1.95068701171875,-0.000987766426987946,0.0036365464329719543,0.00018615495355334133
1772457082555706000,1.9607060546875,-0.002064748667180538,0.0036975329276174307,-0.0005065332516096532
1772457082565724200,1.97072412109375,0.00105301383882761,0.005101817660033703,0.0012903015594929457
1772457082575743000,1.980742919921875,-0.0003374225052539259,0.0023158849216997623,-0.0022477079182863235
1772457082585761000,1.990760986328125,-0.0017150756902992725,0.0027196200098842382,0.0008210525847971439
1772457082595780000,2.000780029296875,-0.004396879114210606,0.004211789462715387,-0.00027377295191399753
1772457082605798000,2.0107978515625,-0.0025537051260471344,0.0031185615807771683,-0.002425074577331543
1772457082615817000,2.02081689453125,-0.0011787151452153921,0.004278901033103466,-0.000007723167072981596
1772457082625835000,2.0308349609375,0.0003789678157772869,0.003947070799767971,0.0009704558760859072
1772457082635854000,2.04085400390625,-0.0010096043115481734,0.006473612040281296,0.00207673292607069
1772457082645872000,2.0508720703125,0.000472977408207953,0.0041792988777160645,-0.0007073355955071747
1772457082655891000,2.060890869140625,-0.0018106831703335047,0.005657619331032038,-0.0008338357438333333
1772457082665909000,2.070908935546875,-0.000565389113035053,0.002662095706909895,0.0001656486128922552
1772457082675928000,2.080927978515625,-0.003965180367231369,0.0054909056052565575,0.0001573928166180849
1772457082685946000,2.090946044921875,-0.0028993834275752306,0.0030418625101447105,-0.00014940333494450897
1772457082695965000,2.10096484375,-0.0035502600949257612,0.0036107138730585575,-0.0018895127577707171
1772457082705983200,2.110983154296875,-0.002691923175007105,0.00284958234988153,-0.0008050735923461616
1772457082716002000,2.121001953125,-0.0025960493367165327,0.005904494319111109,-0.0030037793330848217
1772457082726020000,2.13102001953125,-0.0023241406306624413,0.004674380179494619,0.0005225121858529747
1772457082736039200,2.1410390625,-0.0010341054294258356,0.004941229242831469,0.0014538196846842766
1772457082746056400,2.151056396484375,-0.00011611382069531828,0.005339637864381075,0.0006194512825459242
1772457082756075500,2.161075439453125,-0.0018122810870409012,0.003805657150223851,-0.0014594122767448425
1772457082766093600,2.171093505859375,-0.0005395564367063344,0.004860535264015198,-0.001978995045647025
1772457082776112600,2.181112548828125,-0.002469549188390374,0.005835785064846277,-0.0022394522093236446
1772457082786130700,2.191130615234375,-0.0006261091912165284,0.006785734556615353,-0.00008788431296125054
1772457082796149500,2.2011494140625,-0.003689276985824108,0.0035302862524986267,0.0011478224769234657
1772457082806167600,2.21116748046875,-0.002623746171593666,0.0044011399149894714,-0.0006559365428984165
1772457082816186600,2.2211865234375,0.0004468784318305552,0.004420847166329622,0.000041278995922766626
1772457082826204400,2.231204345703125,0.00043649208964779973,0.004208859521895647,-0.00012543488992378116
1772457082836222700,2.24122265625,-0.0036448021419346333,0.002662628423422575,0.001970206620171666
1772457082846241500,2.251241455078125,-0.0018138790037482977,0.0019949739798903465,-0.0017156084068119526
1772457082856259600,2.261259521484375,-0.002094309777021408,0.004797950852662325,0.00039974047103896737
1772457082866278700,2.271278564453125,-0.002956375014036894,0.0027212179265916348,0.0008697884040884674
1772457082876296400,2.28129638671875,-0.0034149715211242437,0.006058158818632364,-0.0007126618875190616
1772457082886315500,2.2913154296875,-0.0009922938188537955,-0.0020058928057551384,0.03213689848780632
1772457082896333600,2.30133349609375,-0.001704955706372857,-0.00005885586142539978,0.015526761300861835
1772457082906352600,2.3113525390625,-0.003320961957797408,0.005603024736046791,-0.024446753785014153
1772457082916370700,2.32137060546875,-0.004512992687523365,0.004054662771522999,-0.013409015722572803
1772457082926389500,2.331389404296875,-0.0027470507193356752,0.005797967780381441,0.005154548212885857
1772457082936407600,2.341407470703125,-0.002404301892966032,0.00467651104554534,-0.009755957871675491
1772457082946426600,2.351426513671875,-0.0005017395596951246,0.005435511935502291,-0.015970177948474884
1772457082956444400,2.3614443359375,0.00162426196038723,0.004507400095462799,0.00788242369890213
1772457082966463500,2.37146337890625,0.00031851406674832106,0.0035401401109993458,0.010902448557317257
1772457082976481800,2.381481689453125,-0.0008583368035033345,0.005663744639605284,-0.009795372374355793
1772457082986500600,2.39150048828125,-0.001767273643054068,0.003466370515525341,-0.0083085298538208
1772457082996518700,2.4015185546875,-0.0005054679932072759,0.0072943982668221,0.006190784275531769
1772457083006537700,2.411537841796875,-0.0007656587986275554,0.0037143107037991285,0.0026117621455341578
1772457083016555500,2.421555419921875,-0.0024687503464519978,0.003005377249792218,-0.008327704854309559
1772457083026574600,2.43157470703125,-0.00227913330309093,0.0017736653098836541,-0.004253334365785122
1772457083036592400,2.44159228515625,-0.003622697899118066,0.005607285536825657,0.0034581145737320185
1772457083046611500,2.451611572265625,-0.0011166634503751993,0.0031318773981183767,-0.0016042882343754172
1772457083056629800,2.461629638671875,-0.0025920546613633633,0.0057106162421405315,-0.002606702037155628
1772457083066648600,2.471648681640625,-0.0035989959724247456,0.0032525185961276293,0.0015129417879506946
1772457083076666600,2.48166650390625,-0.00009427589975530282,0.0037955371662974358,0.000841825210954994
1772457083086685700,2.491685791015625,-0.0018224010709673166,0.0030804784037172794,-0.00017550231132190675
1772457083096703500,2.501703369140625,-0.0005182511522434652,0.0041364217177033424,-0.003960919566452503
1772457083106722600,2.51172265625,-0.0026261431630700827,0.0036852823104709387,0.0009094694978557527
1772457083116740400,2.521740234375,-0.0020607539918273687,0.004674646537750959,0.0011464908020570874
1772457083126759400,2.531759521484375,-0.00098217383492738,0.0057479003444314,0.000538491178303957
1772457083136777700,2.54177783203125,-0.004511395003646612,0.004777710884809494,-0.001773398951627314
1772457083146796500,2.551796630859375,-0.0028687571175396442,0.009003082290291786,-0.0008916263468563557
1772457083156814600,2.561814697265625,-0.0007472829893231392,0.004798749927431345,0.00233266269788146
1772457083166833700,2.571833740234375,0.00016245282313320786,0.004598480183631182,0.0010575412306934595
1772457083176851500,2.5818515625,-0.0019861855544149876,0.0038280277512967587,-0.0006878945278003812
1772457083186870500,2.59187060546875,-0.0028900622855871916,0.0067881313152611256,-0.00029401297797448933
1772457083196888300,2.601888427734375,-0.002186721656471491,0.005097024142742157,0.0002966761530842632
1772457083206907400,2.611907470703125,0.0011614045361056924,0.0030178942251950502,-0.00014274542627390474
1772457083216925700,2.62192578125,-0.0021260015200823545,0.004761732183396816,0.001297225710004568
1772457083226944500,2.631944580078125,-0.0010189254535362124,0.005784652195870876,0.000006391586794052273
1772457083236962600,2.641962646484375,-0.002435727044939995,0.004878112114965916,-0.0017134778900071979
1772457083246981600,2.651981689453125,-0.0016085492679849267,0.004559597931802273,-0.000853809411637485
1772457083256999400,2.66199951171875,-0.003690076060593128,0.002579537918791175,-0.0021968416403979063
1772457083267018500,2.6720185546875,-0.0012365056900307536,0.004798483569175005,-0.00039281626231968403
1772457083277036500,2.68203662109375,0.0002902845444623381,0.0027683558873832226,-0.00029640982393175364
1772457083287055600,2.6920556640625,0.000014913702216290403,0.0035627768374979496,-0.00449754623696208
1772457083297073700,2.70207373046875,-0.0000828243064461276,0.0037880802992731333,0.002657035831362009
1772457083307092700,2.7120927734375,0.00040320257539860904,0.003866909770295024,-0.0011965582380071282
1772457083317110500,2.722110595703125,0.00016777914424892515,0.0029936593491584063,-0.0005094627267681062
1772457083327128600,2.732128662109375,-0.0007129282457754016,0.00481206551194191,-0.0024104269687086344
1772457083337147400,2.7421474609375,-0.0009901633020490408,0.003852262394502759,0.0005123922019265592
1772457083347165700,2.752165771484375,0.00041678472189232707,0.006174805108457804,-0.0006519418093375862
1772457083357184800,2.762184814453125,-0.0004777711001224816,0.004691424313932657,-0.0013086773687973619
1772457083367202600,2.77220263671875,-0.0011491540353745222,0.00361683894880116,0.000743820914067328
1772457083377221600,2.7822216796875,-0.0005912217311561108,0.00606268597766757,-0.0012506204657256603
1772457083387239400,2.792239501953125,-0.0012724583502858877,0.003023753175511956,-0.00028096348978579044
1772457083397258500,2.802258544921875,-0.0019329222850501537,0.0046365633606910706,-0.000031957933970261365
1772457083407276500,2.812276611328125,-0.0008378304773941636,0.005514341406524181,0.002697782125324011
1772457083417295400,2.82229541015625,-0.002139583695679903,0.003129480639472604,-0.0004649879119824618
1772457083427313700,2.832313720703125,-0.001877262257039547,0.005799565929919481,0.0003057308786083013
1772457083437332700,2.842332763671875,-0.0002623213513288647,0.003918308764696121,-0.0006759102689102292
1772457083447350500,2.8523505859375,-0.0023547669406980276,0.0008143946761265397,0.0010556770721450448
1772457083457369600,2.86236962890625,-0.003425357863306999,0.0054456316865980625,0.0004950816510245204
1772457083467387600,2.8723876953125,-0.00039734362508170307,0.004563592839986086,-0.0017158746486529708
1772457083477406500,2.882406494140625,-0.000526773277670145,0.005526858381927013,0.00012516857532318681
1772457083487424500,2.892424560546875,-0.0020927118603140116,0.0038104509003460407,0.0014887070283293724
1772457083497443600,2.902443603515625,-0.003373426152393222,0.003762780223041773,-0.0021664814557880163
1772457083507461600,2.912461669921875,-0.0005611280212178826,0.0035694348625838757,0.0024594292044639587
1772457083517480700,2.922480712890625,0.0004492752777878195,0.004585164599120617,-0.00039734362508170307
1772457083527498500,2.93249853515625,-0.00039787625428289175,0.0028160265646874905,0.0025385250337421894
1772457083537517600,2.942517578125,-0.0012639362830668688,0.0037175065372139215,-0.002436792477965355
1772457083547535600,2.95253564453125,-0.001511343871243298,0.0046821036376059055,0.0015052186790853739
1772457083557554400,2.962554443359375,0.00016831177345011383,0.004779042676091194,-0.0005046690348535776
1772457083567572500,2.972572509765625,-0.0023441144730895758,0.0038637141697108746,-0.00126739835832268
1772457083577591600,2.982591552734375,-0.004048803821206093,0.0034346787724643946,-0.00373082235455513
1772457083587609600,2.992609619140625,-0.002660231664776802,0.003483947366476059,-0.00033182985498569906
1772457083597628700,3.002628662109375,-0.0008434231276623905,0.002772350562736392,-0.0007068029372021556
1772457083607646500,3.012646484375,-0.0018402442801743746,0.005101817660033703,-0.0013193299528211355
1772457083617665500,3.02266552734375,-0.0004207794554531574,0.003469299990683794,-0.0018716695485636592
1772457083627683600,3.03268359375,-0.00029534456552937627,0.004035221878439188,-0.0017720673931762576
1772457083637702400,3.042702392578125,0.000016777914424892515,0.004069043789058924,0.00034194986801594496
1772457083647720400,3.052720458984375,-0.002508964156731963,0.006274141371250153,-0.002516687149181962
1772457083657739500,3.062739501953125,-0.0013547500129789114,0.0036301547661423683,-0.0014506238512694836
1772457083667757600,3.072757568359375,-0.0026019082870334387,0.0046544065698981285,-0.0023576964158564806
1772457083677776600,3.082776611328125,-0.0015997608425095677,0.0031009847298264503,-0.0012482235906645656
1772457083687794400,3.09279443359375,-0.001035436987876892,0.004369182046502829,-0.001002680161036551
1772457083697812500,3.1028125,-0.0012974920682609081,0.005327919963747263,0.0002639192680362612
1772457083707831600,3.11283154296875,-0.0023313311394304037,0.005805691238492727,-0.0003025351034011692
1772457083717849600,3.122849609375,-0.003614442190155387,0.004384628497064114,-0.0026706180069595575
1772457083727868700,3.13286865234375,-0.003284742822870612,0.004097007215023041,-0.00012383698776829988
1772457083737886700,3.14288671875,-0.0016769925132393837,0.005746036302298307,-0.00020053602929692715
1772457083747905500,3.152905517578125,-0.0035033884923905134,0.002734267385676503,0.000027963191314483993
1772457083757923300,3.16292333984375,-0.0013725932221859694,0.003704723436385393,-0.0025012409314513206
1772457083767942400,3.1729423828125,-0.0009078715811483562,0.005706355441361666,0.0014325142838060856
1772457083777960400,3.18296044921875,-0.0008591357618570328,0.003561445279046893,0.00036458674003370106
1772457083787979300,3.192979248046875,-0.0008364989189431071,0.0060059609822928905,-0.0012812467757612467
1772457083797997600,3.20299755859375,-0.0032314795535057783,0.005298358853906393,-0.002168345730751753
1772457083808016600,3.2130166015625,-0.00039760995423421264,0.003091131104156375,-0.0017446368001401424
1772457083818034400,3.223034423828125,-0.0021254688035696745,0.0021518340799957514,-0.00007057376933516935
1772457083828053500,3.233053466796875,-0.0005749764968641102,0.006354834884405136,0.002296976512297988
1772457083838071300,3.2430712890625,-0.002302036387845874,0.004543619230389595,0.0003328951424919069
1772457083848090400,3.25309033203125,-0.0024884575977921486,0.004366518929600716,-0.0004082625964656472
1772457083858108400,3.2631083984375,-0.002469016704708338,0.0038509308360517025,-0.0015603461069986224
1772457083868127200,3.273127197265625,0.0015805860748514533,0.005901564843952656,0.00029401297797448933
1772457083878145500,3.2831455078125,-0.0034549187403172255,0.0057156761176884174,0.00037736992817372084
1772457083888164600,3.29316455078125,-0.0032493227627128363,0.0036107138730585575,-0.0009110674145631492
1772457083898182400,3.303182373046875,-0.00452710734680295,0.0052296495996415615,-0.0014444985426962376
1772457083908201500,3.313201416015625,-0.0019776634871959686,0.00571833923459053,-0.000773381965700537
1772457083918219300,3.32321923828125,-0.0009307747823186219,0.003963049966841936,0.0003736414946615696
1772457083928238300,3.33323828125,-0.0016636766958981752,0.0035513252951204777,-0.0006583334179595113
1772457083938256400,3.34325634765625,-0.0023523701820522547,0.005340436939150095,-0.001535046030767262
1772457083948275200,3.353275146484375,-0.0013006879016757011,0.003609115956351161,-0.000713993504177779
1772457083958293500,3.36329345703125,0.00009614011651137844,0.004474376793950796,-0.000502804818097502
1772457083968312600,3.3733125,-0.0016620787791907787,0.004323908127844334,-0.0018109495285898447
1772457083978330400,3.383330322265625,-0.0019411781104281545,0.004740693140774965,-0.001341966912150383
1772457083988348400,3.393348388671875,0.00014940333494450897,0.0059510995633900166,0.0002924150903709233
1772457083998367500,3.403367431640625,-0.0010357033461332321,0.0034165694378316402,0.0016261261189356446
1772457084008385500,3.413385498046875,0.0012828446924686432,0.0019797938875854015,-0.000004793690095539205
1772457084018404600,3.423404541015625,-0.003897003596648574,0.0030711572617292404,-0.001073786523193121
1772457084028422400,3.43342236328125,-0.001285241567529738,0.0029204224701970816,0.0003813646617345512
1772457084038441500,3.44344140625,-0.0027513117529451847,0.005123921670019627,-0.0027425233274698257
1772457084048459500,3.45345947265625,-0.0016815199051052332,0.004609931726008654,0.0011800467036664486
1772457084058478300,3.463478271484375,-0.0016562198288738728,0.004489556886255741,-0.004605937283486128
1772457084068496400,3.473496337890625,-0.0013827132061123848,0.004450674634426832,0.00021438446128740907
1772457084078515500,3.483515380859375,-0.0024138891603797674,0.005250954534858465,-0.004414722323417664
1772457084088533500,3.493533447265625,0.00012623383372556418,0.006679740734398365,-0.0001174454009742476
1772457084098552600,3.503552490234375,-0.0028993834275752306,0.0036189695820212364,-0.0018136126454919577
1772457084108570400,3.5135703125,-0.0011547466274350882,0.004854942671954632,-0.002424808219075203
1772457084118589400,3.52358935546875,-0.001406947965733707,0.003063966752961278,-0.0004830974212381989
1772457084128607500,3.533607421875,-0.0015014902455732226,0.006865629460662603,0.0000066579027588886674
1772457084138626300,3.543626220703125,-0.0014306501252576709,0.005602225661277771,-0.0008607336785644293
1772457084148644400,3.553644287109375,-0.0009784454014152288,0.004385427106171846,0.0005438174703158438
1772457084158663400,3.563663330078125,-0.002034921431913972,0.004704740364104509,0.0008378304773941636
1772457084168681500,3.573681396484375,-0.003322559641674161,0.003746002446860075,0.0004796353168785572
1772457084178700500,3.583700439453125,0.00004394215648062527,0.0032386700622737408,0.0028485171496868134
1772457084188718300,3.59371826171875,-0.0013603427214547992,0.004680239129811525,-0.0035489285364747047
1772457084198737400,3.6037373046875,-0.002957174088805914,0.0033318807836622,-0.0010013486025854945
1772457084208755500,3.61375537109375,-0.0011739213950932026,0.005175587255507708,-0.0007456850726157427
1772457084218774300,3.623774169921875,-0.0013787185307592154,0.004448277875781059,-0.0017797905020415783
1772457084228792300,3.633792236328125,-0.0016367788193747401,0.0027385284192860126,0.0003483414766378701
1772457084238811400,3.643811279296875,-0.0009872338268905878,0.0033577135764062405,0.00024288028362207115
1772457084248829400,3.653829345703125,-0.0008412926108576357,0.003936418332159519,0.0010391654213890433
1772457084258848500,3.6638486328125,-0.0009598032338544726,0.004490888677537441,-0.0033840788528323174
1772457084268866600,3.673866455078125,-0.0035481294617056847,0.006171077024191618,-0.001047154888510704
1772457084278884400,3.68388427734375,-0.002812031889334321,0.005854959599673748,0.00030413299100473523
1772457084288903400,3.6939033203125,-0.0012623383663594723,0.0054815844632685184,-0.0011946940794587135
1772457084298921500,3.70392138671875,0.0002924150903709233,0.003802727675065398,-0.000568318588193506
1772457084308940300,3.713940185546875,-0.0033723609521985054,0.004249606281518936,-0.00005699164830730297
1772457084318958600,3.72395849609375,-0.00321949552744627,0.003216033335775137,-0.0007792409160174429
1772457084328977400,3.733977294921875,-0.0006530070677399635,0.004744155332446098,-0.002793922321870923
1772457084338995500,3.743995361328125,-0.0002181128947995603,0.0053553506731987,-0.00022983079543337226
1772457084349014500,3.7540146484375,-0.001303084660321474,0.0054610781371593475,0.0005211806274019182
1772457084359032300,3.7640322265625,0.00028815402765758336,0.003599794814363122,0.0014168017078191042
1772457084369051400,3.774051513671875,-0.0005717806634493172,0.0030301446095108986,0.00035420042695477605
1772457084379069400,3.7840693359375,-0.0011486213188618422,0.004531901329755783,-0.001975532853975892
1772457084389088500,3.794088623046875,-0.0007611314067617059,0.003579554846510291,0.0005696501466445625
1772457084399106600,3.8041064453125,-0.0015092133544385433,0.0041430797427892685,0.00005752427750849165
1772457084409125400,3.81412548828125,-0.0013622068800032139,0.0033859428949654102,-0.0002937466779258102
1772457084419143400,3.824143310546875,-0.000788561999797821,0.0015837819082662463,-0.001172323478385806
1772457084429162500,3.83416259765625,-0.00042530681821517646,0.003911118488758802,0.0010721886064857244
1772457084439180300,3.84418017578125,-0.00032197617110796273,0.003166232258081436,0.0008767126128077507
1772457084449199400,3.854199462890625,-0.0036658411845564842,0.004543086513876915,0.00040080572944134474
1772457084459217700,3.8642177734375,-0.002222940558567643,0.006698915269225836,-0.001281779375858605
1772457084469236500,3.874236572265625,-0.0033542513847351074,0.0040765004232525826,0.0006599313346669078
1772457084479254500,3.884254638671875,-0.0005755090969614685,0.0044014062732458115,-0.0012450277572497725
1772457084489273600,3.894273681640625,-0.0016639430541545153,0.005056810099631548,-0.0006093312404118478
1772457084499291400,3.90429150390625,-0.0022303974255919456,0.002918824553489685,-0.001958488719537854
1772457084509310500,3.914310546875,-0.0008820389630272985,0.00535455159842968,-0.0013206616276875138
1772457084519328300,3.924328369140625,-0.001398159540258348,0.0035198999103158712,0.0023180153220891953
1772457084529347300,3.934347412109375,-0.004538292996585369,0.004290618933737278,-0.0010343717876821756
1772457084539365600,3.94436572265625,-0.000895621080417186,0.005532983224838972,-0.0021909826900810003
1772457084549383400,3.954383544921875,-0.0010298443958163261,0.0029800771735608578,0.00145222176797688
1772457084559402500,3.964402587890625,-0.0035595810040831566,0.0064954496920108795,0.00012916330888401717
1772457084569420300,3.974420166015625,-0.00224930583499372,0.0046179210767149925,0.0009238505735993385
1772457084579439400,3.984439453125,-0.0013992248568683863,0.005592105444520712,-0.000006924218723725062
1772457084589457400,3.99445751953125,-0.0009038768475875258,0.004491953644901514,0.0010080065112560987
1772457084599476200,4.004476318359375,-0.0016706009628251195,0.0026370619889348745,-0.002404035534709692
1772457084609494500,4.01449462890625,-0.0034557178150862455,0.006137787364423275,-0.003537743119522929
1772457084619513600,4.024513671875,-0.0012082761386409402,0.004328435752540827,0.0007379619055427611
1772457084629531400,4.034531494140625,-0.0026144252624362707,0.0043891556560993195,-0.0002364887041039765
1772457084639550500,4.044550537109375,-0.0017739315517246723,0.004707403481006622,-0.002757703186944127
1772457084649568300,4.054568359375,-0.0012855078093707561,0.002950516063719988,0.0026724820490926504
1772457084659587300,4.06458740234375,-0.0019449065439403057,0.003216299694031477,0.0007795072160661221
1772457084669605400,4.07460546875,-0.0024668860714882612,0.003829092951491475,0.0006000102148391306
1772457084679624200,4.084624267578125,-0.0012056130217388272,0.0035268242936581373,-0.000764593540225178
1772457084689642500,4.094642578125,0.0005339637864381075,0.0022027005907148123,0.0010135991033166647
1772457084699661600,4.10466162109375,-0.0018775284988805652,0.004387557972222567,-0.0027212179265916348
1772457084709679400,4.114679443359375,-0.002924949862062931,0.003340402850881219,-0.0006506102508865297
1772457084719698400,4.124698486328125,-0.0036165728233754635,0.0028932581190019846,0.0007890945998951793
1772457084729716500,4.134716552734375,-0.0024831313639879227,0.0038748993538320065,-0.003195793367922306
1772457084739735300,4.1447353515625,-0.0017656758427619934,0.004263454582542181,-0.0004588626616168767
1772457084749753600,4.154753662109375,0.0008250473183579743,0.0031310785561800003,0.0011606055777519941
1772457084759772400,4.1647724609375,0.000529702752828598,0.005879993550479412,-0.0005914880894124508
1772457084769790500,4.17479052734375,-0.0007912251749075949,0.0024429175537079573,0.00002103897168126423
1772457084779808500,4.18480859375,-0.0007012102869339287,0.005118595436215401,0.00014913702034391463
1772457084789827600,4.19482763671875,0.0005928196478635073,0.004047738388180733,0.000480434246128425
1772457084799845400,4.204845458984375,-0.0036128442734479904,0.002975283656269312,-0.0010048106778413057
1772457084809864400,4.214864501953125,-0.0014775217277929187,0.0032559807877987623,0.00227860058657825
1772457084819882500,4.224882568359375,-0.00006950850365683436,0.002546780975535512,0.0005328985280357301
1772457084829901600,4.234901611328125,0.0000601874417043291,0.003864513011649251,-0.0008037420338951051
1772457084839919600,4.244919677734375,-0.004487426485866308,0.005558017175644636,-0.0018943065078929067
1772457084849938400,4.2549384765625,-0.001175252953544259,0.003997404593974352,-0.0015486282063648105
1772457084859956500,4.26495654296875,-0.0013406352372840047,0.003543335711583495,-0.0024674187880009413
1772457084869975600,4.2749755859375,0.0007464840309694409,0.003912982530891895,0.0020040287636220455
1772457084879993300,4.284993408203125,-0.001413339632563293,0.0029968551825731993,-0.0001573928166180849
1772457084890012400,4.295012451171875,-0.0022892532870173454,0.0027893949300050735,-0.0018218684708699584
1772457084900030500,4.305030517578125,-0.0021635519806295633,0.004846154246479273,-0.0004828310920856893
1772457084910049500,4.315049560546875,-0.0013965616235509515,0.0037204360123723745,-0.0000015978966985130683
1772457084920067600,4.325067626953125,-0.0008122641011141241,0.0037587855476886034,0.0016737966798245907
1772457084930086400,4.33508642578125,-0.0020626182667911053,0.00253399764187634,0.0007781756576150656
1772457084940104400,4.3451044921875,-0.0001227717293659225,0.0020964404102414846,0.0013600763631984591
1772457084950123500,4.35512353515625,-0.002207760466262698,0.003757453989237547,0.0005808354471810162
1772457084960141300,4.365141357421875,0.0002902845444623381,0.004599811974912882,-0.0011121360585093498
1772457084970160400,4.375160400390625,-0.001537709147669375,0.0027366643771529198,0.0020327907986938953
1772457084980178700,4.3851787109375,-0.0010956244077533484,0.007123689632862806,0.0024674187880009413
1772457084990197500,4.395197509765625,0.00013395700079854578,0.0052237906493246555,0.0018410432385280728
1772457085000215600,4.405215576171875,-0.002971821464598179,0.005790777504444122,-0.0022631543688476086
1772457085010234600,4.415234619140625,-0.0009805759182199836,0.006865895353257656,-0.0003779025573749095
1772457085020252400,4.42525244140625,-0.0011731224367395043,0.004048537462949753,-0.0004426173691172153
1772457085030270500,4.4352705078125,-0.0013488910626620054,0.0031039142049849033,0.0021904499735683203
1772457085040289300,4.445289306640625,-0.0012503541074693203,0.004578772932291031,-0.0012942962348461151
1772457085050307600,4.4553076171875,-0.00026045716367661953,0.003254649229347706,0.001228782464750111
1772457085060326700,4.46532666015625,-0.003201385959982872,0.00284984870813787,-0.0012721919920295477
1772457085070344400,4.475344482421875,-0.0017086841398850083,0.0032551817130297422,-0.0024956483393907547
1772457085080363500,4.485363525390625,-0.00003861583536490798,0.004874383565038443,0.0002508697798475623
1772457085090381300,4.49538134765625,-0.003644536016508937,0.0030719563364982605,0.0010490191634744406
1772457085100400400,4.505400390625,-0.0018471685471013188,0.0038951393216848373,-0.00213665422052145
1772457085110418400,4.51541845703125,-0.0028815402183681726,0.0057015614584088326,-0.0006221143994480371
1772457085120437500,4.5254375,-0.0011837751371785998,0.002674879040569067,0.0008737831376492977
1772457085130455600,4.53545556640625,-0.0020306603983044624,0.005657619331032038,-0.0006631271098740399
1772457085140474600,4.545474609375,-0.00007962851668708026,0.004580903332680464,-0.001141963410191238
1772457085150492400,4.555492431640625,-0.002969158347696066,0.003733219113200903,-0.0008412926108576357
1772457085160511500,4.565511474609375,-0.0009712548344396055,0.003713778220117092,-0.0014335796004161239
1772457085170529300,4.575529296875,-0.0005675196298398077,0.004295945167541504,-0.001948368619196117
1772457085180548400,4.58554833984375,0.00026312030968256295,0.005001682788133621,0.0005776396137662232
1772457085190566700,4.595566650390625,-0.0009656621841713786,0.005269064102321863,-0.00010945591930067167
1772457085200585500,4.60558544921875,0.0014056164072826505,0.0031228226143866777,-0.001297225710004568
1772457085210603500,4.615603515625,-0.0016586167039349675,0.0036397422663867474,0.0006572681595571339
1772457085220621600,4.62562158203125,-0.0009486179915256798,0.004051466938108206,-0.0014735270524397492
1772457085230640400,4.635640380859375,-0.0013137373607605696,0.0028216191567480564,-0.00007536746124969795
1772457085240658400,4.645658447265625,-0.0010772485984489322,0.003263703780248761,-0.001812014845199883
1772457085250677500,4.655677490234375,-0.0006788397440686822,0.0052381716668605804,-0.0007957525085657835
1772457085260695600,4.665695556640625,-0.000892425247002393,0.005228051450103521,0.0018410432385280728
1772457085270714600,4.675714599609375,-0.0025659557431936264,0.0021081583108752966,0.000030892668291926384
1772457085280732400,4.685732421875,-0.0007952199084684253,0.005373460240662098,-0.0013480921043083072
1772457085290751500,4.69575146484375,-0.002243713242933154,0.0031973912846297026,-0.0007981493836268783
1772457085300769500,4.70576953125,-0.0001960086519829929,0.002127865795046091,-0.0007459514308720827
1772457085310788400,4.715788330078125,-0.0011345066595822573,0.003260508179664612,0.0000953411654336378
1772457085320806400,4.725806396484375,-0.0023731428664177656,0.0027513117529451847,0.0015765913994982839
1772457085330825500,4.735825439453125,-0.0012237224727869034,0.0029262814205139875,-0.0012471582740545273
1772457085340843500,4.745843505859375,-0.0015267902053892612,0.005935387220233679,-0.003236806020140648
1772457085350862600,4.755862548828125,-0.002127865795046091,0.0059598879888653755,0.0010122675448656082
1772457085360880400,4.76588037109375,-0.0024170849937945604,0.004278634674847126,0.0012096078135073185
1772457085370899500,4.7758994140625,0.00040080572944134474,0.0031438616570085287,-0.0015283881220966578
1772457085380917500,4.78591748046875,-0.001677525113336742,0.001788046327419579,-0.003614442190155387
1772457085390936300,4.795936279296875,-0.003102849004790187,0.0033571808598935604,-0.0008263788768090308
1772457085400954400,4.805954345703125,-0.0015331818722188473,0.0046448190696537495,-0.0006740460521541536
1772457085410973400,4.815973388671875,-0.0010966897243633866,0.0057433731853961945,-0.0001637844106880948
1772457085420991500,4.825991455078125,-0.0011140003334730864,0.0017973673529922962,-0.0014788532862439752
1772457085431009500,4.836009521484375,-0.001972603378817439,0.004050401505082846,-0.0005430185701698065
1772457085441028600,4.846028564453125,-0.0024889903143048286,0.0038892803713679314,0.0007323693134821951
1772457085451046400,4.85604638671875,-0.0016144082183018327,0.0038890140131115913,-0.00023861923546064645
1772457085461065500,4.8660654296875,-0.0017222663154825568,0.0043593281880021095,0.0014452975010499358
1772457085471083500,4.87608349609375,-0.0005659217131324112,0.00321843009442091,0.0004215783847030252
1772457085481102600,4.8861025390625,-0.0030005834996700287,0.005644303746521473,-0.0023518374655395746
1772457085491120600,4.89612060546875,-0.0026940538082271814,0.005787581671029329,-0.00027297402266412973
1772457085501139500,4.906139404296875,-0.0018764632986858487,0.00503949960693717,0.0006793724023737013
1772457085511157500,4.916157470703125,0.0013781858142465353,0.004275438841432333,-0.0009100021561607718
1772457085521176600,4.926176513671875,-0.000803209375590086,0.005109807010740042,-0.0004319647268857807
1772457085531194400,4.9361943359375,-0.001954760169610381,0.0026527747977524996,0.00006125270738266408
1772457085541213400,4.94621337890625,-0.0027166905347257853,0.006419016979634762,-0.0024810009635984898
1772457085551231500,4.9562314453125,-0.0028397287242114544,0.004348409362137318,-0.0011092065833508968
1772457085561250600,4.96625048828125,-0.0035806200467050076,0.003353186184540391,-0.000176301269675605
1772457085571268600,4.9762685546875,-0.00177952426020056,0.0022122878581285477,0.0010005496442317963
1772457085581287400,4.986287353515625,-0.0033068470656871796,0.0034298852551728487,-0.0010548781137913465
1772457085591305500,4.996305419921875,-0.0026999127585440874,0.004290885291993618,0.000041012681322172284
1772457085601324500,5.006324462890625,-0.001181378262117505,0.0041153826750814915,-0.00009400958515470847
1772457085611342300,5.01634228515625,-0.0015795208746567369,0.0022383867762982845,-0.0009086705395020545
1772457085621361400,5.026361328125,-0.00045034053619019687,0.0051995557732880116,-0.002082591876387596
1772457085631379500,5.03637939453125,-0.0013230583863332868,0.0036506610922515392,-0.0012772521004080772
1772457085641397500,5.0463974609375,-0.002086320426315069,0.0031883365008980036,-0.001734783174470067
1772457085651416600,5.05641650390625,-0.002038117265328765,0.004579837899655104,-0.0000500674286740832
1772457085661434400,5.066434326171875,0.0006109291571192443,0.005218463949859142,-0.0022567627020180225
1772457085671453400,5.076453369140625,-0.0012357067316770554,0.0017757958266884089,-0.002632800955325365
1772457085681471500,5.086471435546875,-0.0010908307740464807,0.005643771030008793,-0.0017361147329211235
1772457085691490300,5.096490234375,-0.0030389330349862576,0.001710548298433423,0.00022130868455860764
1772457085701508600,5.106508544921875,-0.0037297571543604136,0.004979312419891357,-0.000639424950350076
1772457085711527700,5.116527587890625,-0.0019528960110619664,0.002918558195233345,-0.0009901633020490408
1772457085721545500,5.12654541015625,-0.004188619554042816,0.004830707795917988,0.00022743394947610795
1772457085731564500,5.136564453125,-0.003421895671635866,0.003638144349679351,0.002537459833547473
1772457085741582300,5.146582275390625,-0.0035718316212296486,0.005332181230187416,0.0001954760227818042
1772457085751602000,5.156601806640625,-0.0008010788587853312,0.004117247182875872,-0.0001347559446003288
1772457085761620000,5.166619873046875,-0.003400324145331979,0.004593420308083296,0.0012889700010418892
1772457085771638800,5.176638671875,-0.0007898935582488775,0.005263737868517637,-0.0005845638806931674
1772457085781657000,5.186656982421875,-0.0014258564915508032,0.003239202778786421,-0.00021917815320193768
1772457085791676200,5.19667626953125,-0.0020149475894868374,0.004520982038229704,-0.0029758161399513483
1772457085801694000,5.20669384765625,-0.002671150490641594,0.004174238536506891,0.0001752359967213124
1772457085811712000,5.2167119140625,-0.002079928759485483,0.00455879932269454,0.00031851406674832106
1772457085821730800,5.226730712890625,0.0004820321628358215,0.0026530411560088396,0.00036272252327762544
1772457085831748900,5.236748779296875,-0.0006865629111416638,0.00464668357744813,0.0013486248208209872
1772457085841768000,5.246767822265625,-0.0019622170366346836,0.004511927254498005,0.00008868326403899118
1772457085851786000,5.256785888671875,-0.001939313835464418,0.006630738265812397,0.000606668065302074
1772457085861805000,5.26680517578125,-0.000026365294615970924,0.004747883416712284,-0.002225070958957076
1772457085871822800,5.27682275390625,0.0005936186062172055,0.0037111148703843355,0.0014362427173182368
1772457085881842000,5.286842041015625,-0.0032384039368480444,0.005988384131342173,-0.0008319715270772576
1772457085891860000,5.29685986328125,0.00024740767548792064,0.007394799496978521,0.0012157330056652427
1772457085901878800,5.306878662109375,-0.0008135957177728415,0.0026069683954119682,-0.0014658038271591067
1772457085911896800,5.316896728515625,-0.0005544701125472784,0.004884237423539162,-0.0011504855938255787
1772457085921916000,5.326916015625,-0.0020655477419495583,0.004620318301022053,-0.0009121326729655266
1772457085931934000,5.336933837890625,-0.0002205097407568246,0.004595817066729069,0.0021877868566662073
1772457085941953000,5.346953125,-0.0013427657540887594,0.005221393425017595,0.0014735270524397492
1772457085951971000,5.35697119140625,-0.0005973470397293568,0.0037207023706287146,-0.0003475425182841718
1772457085961990000,5.366989990234375,-0.002234658459201455,0.004067711997777224,-0.0009691243176348507
1772457085972008000,5.377008056640625,-0.00006764429417671636,0.0035782232880592346,-0.0015760586829856038
1772457085982027000,5.387027099609375,-0.0018160095205530524,0.004625644534826279,-0.0031497206073254347
1772457085992044800,5.397044921875,-0.0011385013349354267,0.005344964098185301,-0.0003246393462177366
1772457086002064000,5.40706396484375,-0.002284725895151496,0.003992078360170126,-0.00250603468157351
1772457086012082000,5.41708203125,-0.001085770782083273,0.003937483765184879,-0.0004713795206043869
1772457086022100000,5.427099853515625,-0.00281948852352798,0.0038456046022474766,-0.00032330775866284966
1772457086032119000,5.437119140625,0.0005006743012927473,0.002855441300198436,-0.003372893435880542
1772457086042136800,5.44713671875,0.00017257283616345376,0.004186755511909723,-0.0004948153509758413
1772457086052156000,5.457156005859375,-0.00024767397553659976,0.003644269658252597,0.0024839304387569427
1772457086062174000,5.467174072265625,-0.002147306688129902,0.0032357405871152878,0.0003158508916385472
1772457086072193000,5.477193115234375,-0.001907355966977775,0.0033222935162484646,-0.0007249124464578927
1772457086082211000,5.487211181640625,0.00032623723382130265,0.0034735610242933035,0.0018442390719428658
1772457086092230000,5.49722998046875,-0.0027241474017500877,0.005379052832722664,-0.000568318588193506
1772457086102248000,5.507248046875,0.0003094593121204525,0.004368915688246489,-0.0002061286650132388
1772457086112267000,5.51726708984375,-0.0018271948210895061,0.004179831128567457,-0.00020639497961383313
1772457086122284800,5.527284912109375,-0.000666589243337512,0.0028692898340523243,-0.0006767092272639275
1772457086132304000,5.537303955078125,0.0013664679136127234,0.005673598498106003,-0.001413073274306953
1772457086142322000,5.547322021484375,-0.0019156117923557758,0.003744937013834715,-0.00012144014181103557
1772457086152341000,5.557341064453125,-0.0016682040877640247,0.004473311826586723,-0.00006151902198325843
1772457086162359000,5.567359130859375,-0.0015100123127922416,0.004057325888425112,-0.0011462245602160692
1772457086172377900,5.5773779296875,-0.0009169263648800552,0.005107676610350609,0.0012937636347487569
1772457086182396000,5.58739599609375,-0.0015622102655470371,0.005197425372898579,-0.0017963021527975798
1772457086192414000,5.5974140625,-0.0022660838440060616,0.0046331011690199375,0.0006815029191784561
1772457086202432800,5.607432861328125,-0.0015209312550723553,0.004831240512430668,-0.0014556838432326913
1772457086212451000,5.617451171875,-0.0016479641199111938,0.005509813781827688,-0.0005382248782552779
1772457086222470100,5.62747021484375,-0.0013134710025042295,0.00564004248008132,-0.0009920274605974555
1772457086232488000,5.637488037109375,-0.0006002765148878098,0.003882888937368989,-0.0002234392159152776
1772457086242507000,5.647507080078125,-0.0018162758788093925,0.004798749927431345,0.00015286543930415064
1772457086252524800,5.65752490234375,-0.0034264230635017157,0.004457066301256418,0.0014514228096231818
1772457086262544000,5.6675439453125,-0.002368615474551916,0.00487251952290535,-0.00005832322858623229
1772457086272562000,5.67756201171875,0.00009933590627042577,0.004177168011665344,0.001023186487145722
1772457086282580700,5.687580810546875,-0.0009920274605974555,0.003428020980209112,0.0009376989910379052
1772457086292599000,5.69759912109375,-0.0022120214998722076,0.0037081853952258825,0.0013986921403557062
1772457086302618000,5.7076181640625,-0.0006005428149364889,0.005024585872888565,-0.001998968655243516
1772457086312636000,5.717635986328125,-0.002481267089024186,0.0041497377678751945,-0.00022770027862861753
1772457086322655000,5.727655029296875,-0.0009355684742331505,0.003925233148038387,-0.000720118754543364
1772457086332672800,5.7376728515625,-0.0008940231637097895,0.002004561247304082,0.0009512811084277928
1772457086342691800,5.74769189453125,0.000401604687795043,0.0035020567011088133,-0.0011092065833508968
1772457086352710000,5.7577099609375,-0.0033840788528323174,0.0051995557732880116,-0.0023845944087952375
1772457086362729000,5.76772900390625,-0.002581934677436948,0.002668221015483141,-0.002112152986228466
1772457086372747000,5.7777470703125,-0.0021052288357168436,0.0028644960839301348,-0.0001954760227818042
1772457086382765000,5.78776513671875,-0.0011238539591431618,0.0060323262587189674,0.0003147856332361698
1772457086392784000,5.797783935546875,-0.00398621940985322,0.005262938793748617,-0.0001917476038215682
1772457086402802000,5.807802001953125,0.00015712650201749057,0.00449754623696208,0.001284708851017058
1772457086412821000,5.817821044921875,-0.003841077210381627,0.003052515210583806,-0.0011720572365447879
1772457086422839000,5.827839111328125,-0.000028229507734067738,0.002941727638244629,0.00021172130072955042
1772457086432858000,5.837858154296875,-0.00264771468937397,0.004305266309529543,0.0015028218040242791
1772457086442876000,5.8478759765625,-0.002862099092453718,0.003528422210365534,-0.002192580606788397
1772457086452895000,5.85789501953125,-0.0026354643050581217,0.00504083139821887,-0.0019949739798903465
1772457086462913000,5.8679130859375,-0.0011270497925579548,0.0036935380194336176,-0.00035952674807049334
1772457086472931800,5.877931884765625,-0.0014759238110855222,0.003774764481931925,0.0012271846644580364
1772457086482950000,5.887949951171875,-0.0005358280031941831,0.0047116647474467754,-0.0024897893890738487
1772457086492969000,5.897968994140625,-0.00430180411785841,0.006613427773118019,-0.0001661812566453591
1772457086502987000,5.907987060546875,-0.0019257317762821913,0.004462126176804304,-0.0006934871198609471
1772457086513006000,5.918006103515625,-0.0011944277212023735,0.0046272422187030315,-0.003085538512095809
1772457086523024000,5.92802392578125,-0.0008109325426630676,0.004554271697998047,-0.0007147924043238163
1772457086533042000,5.9380419921875,-0.003133208956569433,0.0029348034877330065,0.00009241169027518481
1772457086543061000,5.94806103515625,-0.000886566296685487,0.001802693703211844,0.0009864348685368896
1772457086553078800,5.958078857421875,-0.0034562505315989256,0.004218447022140026,0.001315068919211626
1772457086563097900,5.968097900390625,-0.003662112867459655,0.00675271125510335,0.0012261193478479981
1772457086573116000,5.978115966796875,-0.0016674051294103265,0.0055228634737432,0.00040293627534992993
1772457086583135000,5.988135009765625,-0.001621066126972437,0.0027595674619078636,-0.0014090784825384617
1772457086593153000,5.998153076171875,-0.0023430490400642157,0.004825115203857422,-0.0028274781070649624
1772457086603171800,6.008171875,-0.0002641855680849403,0.0034993935842067003,-0.0011022823164239526
1772457086613190000,6.01818994140625,-0.0005331648280844092,0.004458398092538118,0.0008335694437846541
1772457086623209000,6.028208984375,-0.0014495585346594453,0.004449343308806419,0.0013230583863332868
1772457086633226800,6.038226806640625,-0.0025595640763640404,0.005554288625717163,-0.0014354437589645386
1772457086643245800,6.048245849609375,-0.003953728824853897,0.0041308291256427765,-0.001981924520805478
1772457086653264100,6.05826416015625,-0.002441852353513241,0.005654423497617245,-0.0024197481106966734
1772457086663283000,6.068282958984375,-0.002055694116279483,0.003935619257390499,-0.0012990899849683046
1772457086673301000,6.078301025390625,-0.001532382913865149,0.004160390235483646,0.0010716560063883662
1772457086683320000,6.088320068359375,-0.002665824256837368,0.0029033781029284,-0.002284992253407836
1772457086693337900,6.098337890625,-0.00253479671664536,0.004456799943000078,0.000021305288100847974
1772457086703357000,6.10835693359375,-0.0013467605458572507,0.004200603812932968,-0.00031185615807771683
1772457086713375000,6.118375,0.0007305050967261195,0.0026522420812398195,-0.0007155913626775146
1772457086723393000,6.12839306640625,-0.0013523531379178166,0.003703924361616373,-0.001806155894882977
1772457086733412000,6.138412109375,-0.0018812569323927164,0.0017885789275169373,0.0024234766606241465
1772457086743430000,6.148429931640625,-0.0017009610310196877,0.0052381716668605804,0.0005821670056320727
1772457086753448200,6.1584482421875,-0.0013880395563319325,0.004963333252817392,0.0002817624481394887
1772457086763466200,6.16846630859375,-0.0011555455857887864,0.003641606541350484,-0.0003110571997240186
1772457086773485300,6.1784853515625,-0.00018855179951060563,0.0016261261189356446,0.001088966615498066
1772457086783503400,6.18850341796875,-0.0032647692132741213,0.002338788006454706,-0.0009584716754034162
1772457086793522400,6.1985224609375,-0.0024109596852213144,0.005825931206345558,-0.0008586031035520136
1772457086803540200,6.208540283203125,-0.00013795174891129136,0.0032170985359698534,-0.0010697918478399515
1772457086813559300,6.218559326171875,0.0006793724023737013,0.0026399914640933275,-0.0008247809601016343
1772457086823577300,6.228577392578125,-0.0005779059720225632,0.003465837799012661,0.0010721886064857244
1772457086833596200,6.23859619140625,-0.0008583368035033345,0.003632019041106105,0.0002008023438975215
1772457086843614500,6.248614501953125,-0.0012386362068355083,0.005278385244309902,-0.0009454221581108868
1772457086853633300,6.25863330078125,-0.0017616810509935021,0.0043715788051486015,-0.0009142631897702813
1772457086863651300,6.2686513671875,-0.004581436049193144,0.004140949342399836,-0.002316950121894479
1772457086873669400,6.27866943359375,-0.001249555149115622,0.004719920456409454,-0.00027856664382852614
1772457086883688200,6.288688232421875,-0.0016234630020335317,0.0047090016305446625,-0.0016964336391538382
1772457086893706200,6.298706298828125,-0.001017061178572476,0.004388622939586639,-0.0014018879737704992
1772457086903725300,6.308725341796875,-0.0006985471700318158,0.002749713836237788,0.002695651724934578
1772457086913743400,6.318743408203125,-0.003689543344080448,0.00478436890989542,0.00024980452144518495
1772457086923762400,6.328762451171875,0.000143544384627603,0.003774498123675585,-0.000984570593573153
1772457086933780200,6.3387802734375,-0.0010554107138887048,0.0022596921771764755,-0.003493002150207758
1772457086943799300,6.34879931640625,-0.001817341079004109,0.00515774404630065,-0.0000015978966985130683
1772457086953817300,6.3588173828125,-0.0016250609187409282,0.005083974450826645,-0.0019299928098917007
1772457086963835100,6.368835205078125,-0.002380866091698408,0.0009747169679030776,-0.0005107942852191627
1772457086973853400,6.378853515625,-0.0012841762509196997,0.003962517250329256,0.0005739112384617329
1772457086983872500,6.38887255859375,-0.0011739213950932026,0.00344506511464715,-0.0007121292874217033
1772457086993890300,6.398890380859375,-0.0013499563792720437,0.004199805203825235,0.0023723437916487455
1772457087003909400,6.408909423828125,-0.00041092574247159064,0.004706338047981262,0.00010093380114994943
1772457087013927200,6.41892724609375,-0.001169394003227353,0.005080778617411852,-0.0015366439474746585
1772457087023946200,6.4289462890625,-0.000264718197286129,0.004603540059179068,0.0007004113867878914
1772457087033964300,6.43896435546875,-0.0016801883466541767,0.0049257827922701836,-0.0011049455497413874
1772457087043982300,6.448982421875,-0.004254133440554142,0.005360676907002926,-0.0010106696281582117
1772457087054001400,6.45900146484375,-0.0013235911028459668,0.003834951901808381,0.0012125372886657715
1772457087064019200,6.469019287109375,0.00027084347675554454,0.004730040207505226,-0.0003653856983873993
1772457087074038300,6.479038330078125,-0.0012128035305067897,0.004006193019449711,0.00021758026559837162
1772457087084056300,6.489056396484375,-0.0017558221006765962,0.005210474599152803,-0.0017001620726659894
1772457087094075100,6.4990751953125,0.0020562265999615192,0.004720453172922134,0.001202150946483016
1772457087104093400,6.509093505859375,-0.000931307440623641,0.003864513011649251,-0.0010873686987906694
1772457087114112300,6.5191123046875,-0.0005765743553638458,0.006079730577766895,-0.0012964267516508698
1772457087124130300,6.52913037109375,-0.0019949739798903465,0.0064744106493890285,0.00047697214176878333
1772457087134149400,6.5391494140625,-0.0032583775464445353,0.004080228973180056,0.001984321279451251
1772457087144167400,6.54916748046875,0.0003507383225951344,0.004269313532859087,-0.0021015002857893705
1772457087154186200,6.559186279296875,-0.003242931328713894,0.004628840368241072,0.0006428870838135481
1772457087164204300,6.569204345703125,-0.0026381274219602346,0.0046267095021903515,0.0013073458103463054
1772457087174223400,6.579223388671875,-0.0015302523970603943,0.002624545246362686,0.0011488876771181822
1772457087184241400,6.589241455078125,-0.00031664984999224544,0.004256263840943575,-0.0003115898580290377
1772457087194260500,6.599260498046875,-0.0005475459038279951,0.0034975295420736074,0.0006146575906313956
1772457087204278300,6.6092783203125,-0.00196354859508574,0.0033422671258449554,0.0008186557097360492
1772457087214296300,6.61929638671875,-0.0004777711001224816,0.003884486621245742,0.0010793792316690087
1772457087224315400,6.6293154296875,-0.0009592706337571144,0.0034610440488904715,-0.0029582392890006304
1772457087234333200,6.639333251953125,-0.0009925601771101356,0.005109008401632309,-0.000003728425554072601
1772457087244352300,6.649352294921875,0.00027324032271280885,0.0038389465771615505,-0.0009347695158794522
1772457087254370300,6.659370361328125,-0.0014772554859519005,0.0057044909335672855,-0.0008106662426143885
1772457087264389400,6.669389404296875,-0.0006743124104104936,0.0016871124971657991,-0.00021784658019896597
1772457087274407400,6.679407470703125,-0.0034495925065129995,0.003832288784906268,-0.0014085458824411035
1772457087284426200,6.68942626953125,-0.003747866488993168,0.005078648217022419,-0.001919073867611587
1772457087294444300,6.6994443359375,-0.0024429175537079573,0.005335377063602209,0.0000953411654336378
1772457087304463400,6.70946337890625,-0.0011166634503751993,0.003010969841852784,-0.0026077672373503447
1772457087314481200,6.719481201171875,-0.0017811221769079566,0.005899168085306883,-0.0025156219489872456
1772457087324500200,6.729500244140625,-0.001294029993005097,0.00452843913808465,0.0007134608458727598
1772457087334518300,6.739518310546875,-0.002112685702741146,0.006085323169827461,-0.0017132115317508578
1772457087344537300,6.749537353515625,-0.0016357135027647018,0.002796851797029376,0.001264735241420567
1772457087354555400,6.759555419921875,-0.0008940231637097895,0.004416053649038076,0.0008141283178701997
1772457087364574200,6.76957421875,-0.002695651724934578,0.005434446502476931,-0.0009574064170010388
1772457087374592300,6.77959228515625,-0.000055393749789800495,0.0035952674224972725,-0.0015542207984253764
1772457087384611300,6.789611328125,0.0005102616851218045,0.006924218963831663,0.0003374225052539259
1772457087394629000,6.799629150390625,-0.0020154803059995174,0.004972121678292751,0.0014567491598427296
1772457087404648200,6.809648193359375,0.00035206988104619086,0.0046842340379953384,0.0002644518972374499
1772457087414666500,6.81966650390625,-0.0006993460701778531,0.0030011162161827087,0.00016644757124595344
1772457087424685300,6.829685302734375,-0.0033390712924301624,0.003674097126349807,-0.0011235876008868217
1772457087434703400,6.839703369140625,-0.00011531487689353526,0.0038011297583580017,0.0022218753583729267
1772457087444722400,6.849722412109375,-0.001891909632831812,0.004995557479560375,-0.0002181128947995603
1772457087454740200,6.859740234375,-0.0011835087789222598,0.004188885912299156,-0.0015595471486449242
1772457087464758300,6.86975830078125,-0.0013600763631984591,0.006311958190053701,-0.0002079928817693144
1772457087474777300,6.87977734375,0.0005454153870232403,0.004063983913511038,-0.0007986819837242365
1772457087484795400,6.88979541015625,-0.0009267800487577915,0.005181712564080954,-0.0015068164793774486
1772457087494814500,6.899814453125,-0.0036826191935688257,0.004400873556733131,-0.0013704627053812146
1772457087504832300,6.909832275390625,-0.00577932596206665,0.0010460896883159876,-0.0008468852029182017
1772457087514851300,6.919851318359375,-0.0019443739438429475,0.001826395862735808,-0.0015339808305725455
1772457087524869000,6.929869140625,0.00032916670897975564,0.0020181434229016304,-0.0010269149206578732
1772457087534888200,6.93988818359375,-0.0007739146240055561,0.0028128307312726974,-0.0019984361715614796
1772457087544906500,6.949906494140625,-0.0026578346733003855,0.005735916085541248,-0.0009065400226972997
1772457087554925300,6.95992529296875,0.00013422331539914012,0.006865895353257656,-0.0032317459117621183
1772457087564943400,6.969943359375,0.00033875409280881286,0.00439048744738102,0.0002490055630914867
1772457087574962400,6.97996240234375,-0.0007848335662856698,0.004457332659512758,-0.002418682910501957
1772457087584980200,6.989980224609375,-0.0015414375811815262,0.004126035608351231,0.002609098795801401
1772457087594999300,6.999999267578125,-0.002010420197620988,0.0034461303148418665,0.0007691209320910275
1772457087605017300,7.010017333984375,0.00025300029665231705,0.0037414750549942255,-0.0006072007236070931
1772457087615035400,7.020035400390625,-0.0022831279784440994,0.004205930046737194,-0.0013004215434193611
1772457087625054500,7.030054443359375,0.0010010822443291545,0.0031068436801433563,-0.0010335728293284774
1772457087635072300,7.040072265625,-0.001243696198798716,0.0030333404429256916,0.0007158577209338546
1772457087645091300,7.05009130859375,0.0010484865633770823,0.0018993664998561144,-0.0020879183430224657
1772457087655109400,7.060109375,-0.0028386632911860943,0.0033369408920407295,-0.002983539365231991
1772457087665128200,7.070128173828125,0.00047697214176878333,0.0036932716611772776,-0.0011611381778493524
1772457087675146200,7.080146240234375,-0.001243696198798716,0.005537777207791805,-0.00011877698125317693
1772457087685165300,7.090165283203125,-0.0011579424608498812,0.00330205331556499,0.0021552962716668844
1772457087695183400,7.100183349609375,-0.001639441936276853,0.005632852204144001,-0.002301770029589534
1772457087705202400,7.110202392578125,-0.0020937772933393717,0.004236822947859764,-0.0006780407857149839
1772457087715220200,7.12022021484375,-0.0018634138396009803,0.004735899157822132,0.00008122641156660393
1772457087725239300,7.1302392578125,0.0001483380765421316,0.00381417921744287,-0.0000476705827168189
1772457087735257300,7.14025732421875,-0.001112935016863048,0.0036360137164592743,-0.0009800433181226254
1772457087745276200,7.150276123046875,-0.000963797967415303,0.00421471893787384,-0.00049108691746369
1772457087755295200,7.160295166015625,-0.0017310547409579158,0.003905259305611253,0.0004069310089107603
1772457087765313300,7.170313232421875,-0.001543834456242621,0.005958290304988623,-0.0009464874165132642
1772457087775332000,7.18033203125,-0.0005344964447431266,0.004494883120059967,0.0009214537567459047
1772457087785350400,7.190350341796875,-0.00005752427750849165,0.006370281334966421,-0.001341434195637703
1772457087795369500,7.200369384765625,-0.00015819176041986793,0.004467719234526157,0.0007249124464578927
1772457087805387300,7.21038720703125,-0.000526506919413805,0.004578506574034691,0.0002889529860112816
1772457087815406300,7.22040625,-0.0012796488590538502,0.005434979218989611,-0.0013994910987094045
1772457087825424100,7.230424072265625,0.00019707392493728548,0.0041185785084962845,-0.001680454588495195
1772457087835443200,7.240443115234375,-0.0008458199445158243,0.0031047132797539234,0.00045087316539138556
1772457087845461200,7.250461181640625,-0.0006303702248260379,0.004747084807604551,-0.0010135991033166647
1772457087855480300,7.260480224609375,-0.002371012233197689,0.003763046581298113,0.0002985403698403388
1772457087865498400,7.270498291015625,-0.003032541600987315,0.004064516630023718,0.0014327806420624256
1772457087875517400,7.280517333984375,-0.0013193299528211355,0.0036064526066184044,0.0006652576266787946
1772457087885535200,7.29053515625,-0.0012681973166763783,0.00358860963024199,0.001047154888510704
1772457087895554300,7.30055419921875,-0.0009701895760372281,0.0038192393258213997,0.0001901497016660869
1772457087905572400,7.310572265625,-0.0024647556710988283,0.004108192399144173,0.0020876519847661257
1772457087915590400,7.32059033203125,-0.0025656893849372864,0.004566788673400879,-0.0012857741676270962
1772457087925609500,7.330609375,-0.0015646071406081319,0.003326021833345294,-0.0024293356109410524
1772457087935627300,7.340627197265625,-0.0019022959750145674,0.004743888974189758,-0.0002921487612184137
1772457087945646300,7.350646240234375,-0.0016117451013997197,0.0034850125666707754,-0.0005422196118161082
1772457087955664400,7.360664306640625,-0.0017297230660915375,0.004324707202613354,-0.0018008295446634293
1772457087965683200,7.37068310546875,-0.0005302353529259562,0.004788629710674286,-0.0008724515791982412
1772457087975701200,7.380701171875,-0.0009243832319043577,0.007595069240778685,-0.0010479538468644023
1772457087985720300,7.39072021484375,-0.0028130970895290375,0.004267183132469654,-0.0015744607662782073
1772457087995738400,7.40073828125,-0.001990979304537177,0.004817658569663763,-0.00006364954606397077
1772457088005757400,7.41075732421875,-0.0010527475969865918,0.003732952754944563,0.001413073274306953
1772457088015775200,7.420775146484375,-0.0021550299134105444,0.005380117800086737,-0.0014197311829775572
1772457088025794300,7.430794189453125,-0.002246642718091607,0.0057739997282624245,0.0009305084822699428
1772457088035812400,7.440812255859375,-0.0016964336391538382,0.004089816473424435,0.0009760485263541341
1772457088045831200,7.4508310546875,-0.0023180153220891953,0.005850432440638542,-0.0023225427139550447
1772457088055849200,7.46084912109375,-0.001618136651813984,0.005252286326140165,-0.001094559207558632
1772457088065867500,7.470867431640625,-0.0002972087822854519,0.005248557776212692,0.001484712352976203
1772457088075886300,7.48088623046875,-0.0012096078135073185,0.003747866488993168,-0.003707919269800186
1772457088085904400,7.490904296875,-0.0012450277572497725,0.005813414230942726,-0.0005025385180488229
1772457088095923500,7.50092333984375,-0.0036509274505078793,0.00412417110055685,0.0003046656202059239
1772457088105941200,7.510941162109375,-0.0021704763639718294,0.0037699707318097353,-0.0007771103992126882
1772457088115960300,7.520960205078125,-0.0019489012192934752,0.0046879625879228115,-0.0017089504981413484
1772457088125978000,7.53097802734375,-0.003391801845282316,0.003266899613663554,-0.0022325278259813786
1772457088135997200,7.5409970703125,-0.0017728663515299559,0.00615270109847188,-0.0006684534018859267
1772457088146015500,7.551015380859375,-0.002258893335238099,0.00301762786693871,-0.0013339773286134005
1772457088156034300,7.561034423828125,-0.0006735134520567954,0.006807838566601276,-0.002371278591454029
1772457088166052400,7.57105224609375,-0.0005720470217056572,0.0041675809770822525,0.0002692455891519785
1772457088176071400,7.581071533203125,-0.0023909860756248236,0.0051841093227267265,-0.003715642262250185
1772457088186089200,7.591089111328125,-0.002192580606788397,0.004864530172199011,-0.0003968109958805144
1772457088196108300,7.6011083984375,-0.0030011162161827087,0.006060555577278137,-0.0004450142150744796
1772457088206126300,7.611126220703125,-0.000565389113035053,0.0036932716611772776,-0.0008604673203080893
1772457088216144400,7.621144287109375,-0.0008356999605894089,0.0054421694949269295,-0.000431432097684592
1772457088226163500,7.63116357421875,-0.004228300880640745,0.005751096177846193,-0.0004753742541652173
1772457088236181200,7.64118115234375,-0.00250603468157351,0.00564137427136302,-0.0008825715631246567
1772457088246200300,7.651200439453125,-0.0006383596919476986,0.003644269658252597,0.0003499393642414361
1772457088256218000,7.661218017578125,-0.000600809114985168,0.0037936728913336992,-0.00022530343267135322
1772457088266237200,7.6712373046875,-0.0025723471771925688,0.005772401578724384,0.000026897927455138415
1772457088276255500,7.68125537109375,-0.0032200280111283064,0.003093527862802148,0.0014642059104517102
1772457088286274300,7.6912744140625,-0.0020359866321086884,0.00447038235142827,0.00021012341312598437
1772457088296292400,7.701292236328125,-0.0015358449891209602,0.0038312235847115517,-0.002508165081962943
1772457088306311400,7.7113115234375,0.0011776498286053538,0.00336197461001575,-0.0013539510546252131
1772457088316329200,7.7213291015625,0.0006945523782633245,0.003513242118060589,0.0008247809601016343
1772457088326348300,7.731348388671875,-0.0009989517275243998,0.0030162963084876537,-0.0007547398563474417
1772457088336366300,7.741366455078125,-0.0004918858758173883,0.004013916477560997,0.0005930859479121864
1772457088346385200,7.75138525390625,-0.0010873686987906694,0.0016935041639953852,-0.000013848437447450124
1772457088356403500,7.761403564453125,-0.0007629956235177815,0.001710548298433423,0.0015752597246319056
1772457088366421200,7.771421142578125,-0.002252235310152173,0.005797967780381441,-0.003650128608569503
1772457088376440300,7.7814404296875,-0.0005605954211205244,0.00566880451515317,0.0021459751296788454
1772457088386458400,7.791458251953125,-0.0005432848702184856,0.005416336935013533,0.0005305017111822963
1772457088396477200,7.801477294921875,-0.00045300371129997075,0.0049646650440990925,-0.00041492050513625145
1772457088406495200,7.8114951171875,0.0002516687090974301,0.0022037657909095287,-0.0019150790758430958
1772457088416514300,7.821514404296875,0.0011731224367395043,0.004061054438352585,-0.001416269107721746
1772457088426532400,7.831532470703125,-0.0015939018921926618,0.0032439965289086103,-0.0010783139150589705
1772457088436551400,7.841551513671875,-0.0007233145297504961,0.006243514828383923,-0.0006676545017398894
1772457088446569200,7.8515693359375,-0.0009462211164645851,0.004043211229145527,-0.0005957491230219603
1772457088456588300,7.86158837890625,-0.004701011814177036,0.005967611446976662,0.001079645473510027
1772457088466606300,7.8716064453125,0.0018338527297601104,0.004260258749127388,-0.001525991247035563
1772457088476625200,7.881625244140625,-0.001888980157673359,0.005117264110594988,-0.002537459833547473
1772457088486643200,7.891643310546875,-0.0008793757879175246,0.003960919566452503,-0.0007398261222988367
1772457088496661500,7.90166162109375,-0.0032237565610557795,0.005695702508091927,-0.0012532835826277733
1772457088506680300,7.911680419921875,-0.002173938322812319,0.005228584166616201,0.0002721750643104315
1772457088516698400,7.921698486328125,0.00024101608141791075,0.005298092495650053,-0.0012042814632877707
1772457088526717400,7.931717529296875,-0.0001358212175546214,0.005097024142742157,-0.0011145329335704446
1772457088536735200,7.9417353515625,-0.0007283745799213648,0.0056951697915792465,-0.0007161240209825337
1772457088546754300,7.95175439453125,-0.0018239989876747131,0.003257312346249819,-0.0008466189028695226
1772457088556772400,7.9617724609375,-0.00009214537567459047,0.005536179058253765,-0.0032898029312491417
1772457088566791400,7.97179150390625,-0.0016077503096312284,0.004144411068409681,-0.0011081412667408586
1772457088576809500,7.9818095703125,-0.0021872541401535273,0.0028541097417473793,0.0016234630020335317
1772457088586828300,7.991828369140625,0.00014647385978605598,0.004608067683875561,0.0006615291931666434
1772457088596846300,8.001846435546875,0.0004948153509758413,0.0033417344093322754,-0.0004546015989035368
1772457088606865400,8.011865478515626,-0.004465055651962757,0.004259726032614708,-0.0014700648607686162
1772457088616883200,8.02188330078125,-0.001999767730012536,0.0041310954838991165,-0.0005765743553638458
1772457088626902300,8.03190234375,-0.0019896477460861206,0.004342550411820412,-0.0007922904333099723
1772457088636920300,8.04192041015625,0.0005062668933533132,0.005780124571174383,-0.000150202278746292
1772457088646938400,8.0519384765625,-0.0015342470724135637,0.004658135119825602,0.0006135923322290182
1772457088656957400,8.06195751953125,-0.00015393071225844324,0.005057342816144228,0.0036669063847512007
1772457088666975200,8.071975341796875,0.0003406183095648885,0.005149754695594311,-0.00140987744089216
1772457088676994300,8.081994384765625,-0.000006924218723725062,0.005797435529530048,-0.0004117247008252889
1772457088687012000,8.09201220703125,0.00009747169679030776,0.0034818167332559824,0.00025832661776803434
1772457088697031200,8.10203125,-0.001984587637707591,0.005233910400420427,0.0004394215648062527
1772457088707049500,8.112049560546875,-0.0014700648607686162,0.003961452282965183,-0.00048389637959189713
1772457088717068300,8.122068359375,-0.0009504822082817554,0.0052320463582873344,-0.0020479708909988403
1772457088727086300,8.13208642578125,-0.0031222901307046413,0.0027390611357986927,0.00030067088664509356
1772457088737105400,8.14210546875,-0.002031991956755519,0.004018976353108883,-0.0019371833186596632
1772457088747123200,8.152123291015625,-0.0001001348573481664,0.004975317511707544,0.0008969526388682425
1772457088757141500,8.1621416015625,0.000024767397917457856,0.004700212739408016,-0.0006508765509352088
1772457088767159600,8.17215966796875,-0.0028599686920642853,0.005363606382161379,0.0005382248782552779
1772457088777177600,8.182177490234375,-0.002204830991104245,0.005561479367315769,-0.0013038836186751723
1772457088787196700,8.19219677734375,-0.0028546424582600594,0.0038637141697108746,-0.0002609897928778082
1772457088797214500,8.20221435546875,-0.0013752563390880823,0.0030099046416580677,0.00002956108801299706
1772457088807233500,8.212233642578125,-0.00216514989733696,0.006143113598227501,0.0003683151735458523
1772457088817251300,8.222251220703125,-0.001038632821291685,0.0035625104792416096,0.0021611552219837904
1772457088827270400,8.2322705078125,-0.00148125016130507,0.0017608820926398039,-0.001002680161036551
1772457088837288700,8.242288818359375,0.0015747271245345473,0.0033862092532217503,0.00038056570338085294
1772457088847307500,8.2523076171875,-0.001725728390738368,0.004328702110797167,0.0013795174891129136
1772457088857325600,8.26232568359375,-0.0011265170760452747,0.003910053055733442,-0.001121723442338407
1772457088867344600,8.2723447265625,-0.0022602248936891556,0.0043928842060267925,-0.0010556770721450448
1772457088877362400,8.282362548828125,-0.0002825613773893565,0.0046911584213376045,-0.0006428870838135481
1772457088887381500,8.292381591796875,-0.0017994979862123728,0.00446825148537755,0.000037550569686573
1772457088897399600,8.302399658203125,-0.001975000137463212,0.004515922162681818,-0.0022058964241296053
1772457088907418400,8.31241845703125,-0.00279072648845613,0.002752643311396241,-0.0015901734586805105
1772457088917436700,8.322436767578125,-0.0014916365034878254,0.0013731258222833276,0.00042983421008102596
1772457088927454500,8.332454345703125,-0.0036128442734479904,0.005017395596951246,-0.000022370553779182956
1772457088937473500,8.3424736328125,-0.0017837852938100696,0.0027411917690187693,-0.0007097324123606086
1772457088947491600,8.35249169921875,-0.0007153250626288354,0.004287156742066145,0.0004069310089107603
1772457088957510400,8.362510498046875,-0.0011174624087288976,0.005958556663244963,-0.0024138891603797674
1772457088967528700,8.37252880859375,-0.002290052128955722,0.0052147358655929565,0.0007544735562987626
1772457088977547500,8.382547607421875,-0.0016466324450448155,0.0059779975563287735,-0.0007334345718845725
1772457088987565600,8.392565673828125,-0.0024706146214157343,0.0038807583041489124,-0.0015022892039269209
1772457088997584600,8.402584716796875,-0.0017238641157746315,0.004261590540409088,-0.0005936186062172055
1772457089007602400,8.4126025390625,-0.002367816399782896,0.0046541402116417885,-0.0012721919920295477
1772457089017621500,8.42262158203125,-0.0018530274974182248,0.004022971261292696,-0.00025060345069505274
1772457089027639600,8.4326396484375,-0.0031763522420078516,0.0025997778866440058,0.0014410364674404263
1772457089037658400,8.442658447265625,0.0000828243064461276,0.002686064224690199,-0.0010940266074612737
1772457089047676700,8.4526767578125,-0.002226136391982436,0.0046538738533854485,-0.0015579492319375277
1772457089057694700,8.46269482421875,-0.004481301177293062,0.004841094370931387,-0.0013789847726002336
1772457089067713500,8.472713623046875,-0.0022037657909095287,0.002445048186928034,-0.0021494373213499784
1772457089077731600,8.482731689453125,0.0014737932942807674,0.0037228327710181475,0.0007219829712994397
1772457089087750700,8.492750732421875,0.00009693906031316146,0.0019089538836851716,0.002438922878354788
1772457089097768400,8.5027685546875,-0.0015188007382676005,0.0034053840208798647,-0.0004868258547503501
1772457089107787500,8.51278759765625,-0.0014623417519032955,0.002888730727136135,0.00005752427750849165
1772457089117805600,8.5228056640625,-0.0021076255943626165,0.0013728595804423094,-0.00009187905379803851
1772457089127824600,8.53282470703125,-0.002119077369570732,0.004363323096185923,-0.0008500810363329947
1772457089137842700,8.5428427734375,-0.0024343954864889383,0.004261057823896408,-0.0010756507981568575
1772457089147861500,8.552861572265625,-0.0022098910994827747,0.00549303600564599,-0.0008607336785644293
1772457089157879600,8.562879638671875,-0.00242081331089139,0.004998220596462488,-0.0008602010202594101
1772457089167898600,8.572898681640625,-0.001190433045849204,0.0049465554766356945,-0.0007187871960923076
1772457089177916400,8.58291650390625,-0.00242214510217309,0.005102616734802723,-0.000107858024421148
1772457089187935500,8.592935546875,-0.0026253440883010626,0.00398621940985322,-0.0043910201638937
1772457089197953500,8.60295361328125,-0.0019313243683427572,0.0037236318457871675,-0.0021198762115091085
1772457089207971600,8.6129716796875,-0.001996039180085063,0.003981692250818014,-0.0011981561547145247
1772457089217990700,8.62299072265625,-0.0010080065112560987,0.0043622576631605625,-0.0015667376574128866
1772457089228008400,8.633008544921875,-0.000040746363083599135,0.0054735951125621796,0.0011920308461412787
1772457089238027500,8.643027587890625,-0.0015464976895600557,0.00407437002286315,-0.0012751214671880007
1772457089248045600,8.653045654296875,-0.0013406352372840047,0.0028511802665889263,-0.0026072347536683083
1772457089258064400,8.663064453125,0.00005858954318682663,0.00287434970960021,0.0004191815387457609
1772457089268082700,8.673082763671875,-0.0012120045721530914,0.004034422803670168,-0.0006074670236557722
1772457089278101500,8.6831015625,-0.0033302828669548035,0.0057681407779455185,-0.002296177437528968
1772457089288119600,8.69311962890625,-0.002654372714459896,0.002653839997947216,-0.00026019083452410996
1772457089298138600,8.703138671875,-0.0012397015234455466,0.0021544971968978643,0.0006404902087524533
1772457089308156400,8.713156494140625,-0.0012218583142384887,0.0023880566004663706,-0.0002772350562736392
1772457089318175500,8.723175537109375,-0.0008604673203080893,0.0053553506731987,-0.0010194580536335707
1772457089328193800,8.73319384765625,-0.00037497308221645653,0.003341468283906579,0.00029108350281603634
1772457089338211600,8.743211669921875,-0.0018082864116877317,0.006569752003997564,-0.0004420847399160266
1772457089348230700,8.753230712890625,-0.0003837615076918155,0.0031585090328007936,0.0014713965356349945
1772457089358248400,8.76324853515625,-0.0008356999605894089,0.004601942375302315,-0.0015022892039269209
1772457089368267500,8.773267578125,0.00007723167072981596,0.00418382603675127,-0.0004063983797095716
1772457089378285600,8.78328564453125,-0.0024176177103072405,0.004450408276170492,-0.00047617321251891553
1772457089388304400,8.793304443359375,-0.00002663161103555467,0.0033193640410900116,-0.0011550129856914282
1772457089398322700,8.80332275390625,-0.0036309538409113884,0.004352137912064791,-0.0015211976133286953
1772457089408341800,8.813341796875,-0.00005379585491027683,0.004441886208951473,-0.0008639294537715614
1772457089418359600,8.823359619140625,-0.001219461439177394,0.004114317707717419,-0.0009539442835375667
1772457089428378600,8.833378662109375,0.000841825210954994,0.003765976056456566,-0.0008594020619057119
1772457089438396400,8.843396484375,-0.002344913315027952,0.006702643819153309,0.00029774141148664057
1772457089448415500,8.85341552734375,-0.00003888214996550232,0.003769438248127699,-0.0023523701820522547
1772457089458433500,8.86343359375,-0.00023329291434492916,0.004668787587434053,0.0011116034584119916
1772457089468451600,8.87345166015625,-0.0007432882557623088,0.005644570104777813,-0.0016474314033985138
1772457089478470700,8.883470703125,-0.002204830991104245,0.003150519449263811,0.0003406183095648885
1772457089488488700,8.89348876953125,-0.002039981307461858,0.002828276949003339,-0.0015012238873168826
1772457089498507500,8.903507568359375,0.00025353292585350573,0.004340686369687319,0.0014330470003187656
1772457089508525600,8.913525634765625,-0.0011883024126291275,0.0016410398529842496,-0.0009217200567945838
1772457089518544600,8.923544677734375,0.0010575412306934595,0.0028900622855871916,0.0011747203534469008
1772457089528562400,8.9335625,-0.0012088088551536202,0.0012428972404450178,-0.00015686018741689622
1772457089538581500,8.94358154296875,0.00005299690383253619,0.004459729418158531,-0.00025300029665231705
1772457089548599600,8.953599609375,-0.0019920445047318935,0.0036495958920568228,-0.0012274509062990546
1772457089558618600,8.96361865234375,-0.0006572681595571339,0.0030336068011820316,0.00020399813365656883
1772457089568636700,8.97363671875,-0.003680222202092409,0.0021638183388859034,-0.0023015039041638374
1772457089578655500,8.983655517578125,-0.0014796522445976734,0.006697850301861763,-0.0011427623685449362
1772457089588673500,8.993673583984375,0.00005352953667170368,0.0018716695485636592,0.00020266656065359712
1772457089598691600,9.003691650390625,-0.0012351741315796971,0.004014182835817337,-0.0034490597900003195
1772457089608710400,9.01371044921875,-0.0027947211638092995,0.00580702256411314,-0.0002985403698403388
1772457089618728700,9.023728759765625,-0.0009355684742331505,0.006174272391945124,0.001068193931132555
1772457089628747500,9.03374755859375,-0.0011970909545198083,0.003288205014541745,-0.0011033476330339909
1772457089638765600,9.043765625,-0.0023824640084058046,0.00373135507106781,-0.00019334549142513424
1772457089648784600,9.05378466796875,-0.0012391688069328666,0.0019225359428673983,0.0004540689697023481
1772457089658802400,9.063802490234375,-0.0026517093647271395,0.005058940965682268,0.0015515576815232635
1772457089668821500,9.073821533203125,-0.0013765880139544606,0.0033694314770400524,-0.0004213120846543461
1772457089678839600,9.083839599609375,-0.0024770060554146767,0.00498037738725543,-0.0003462109307292849
1772457089688858600,9.093858642578125,-0.0018852517241612077,0.004579837899655104,-0.002776345470920205
1772457089698876700,9.103876708984375,-0.00039654469583183527,0.004062385763972998,-0.0029145635198801756
1772457089708895500,9.1138955078125,-0.000996821210719645,0.004485828336328268,-0.0026788737159222364
1772457089718913500,9.12391357421875,-0.00475400872528553,0.004579305648803711,-0.0002615224220789969
1772457089728932600,9.1339326171875,-0.0011329087428748608,0.004160123877227306,0.0007315703551284969
1772457089738950400,9.143950439453125,-0.0031875374261289835,0.005164934787899256,0.0011116034584119916
1772457089748968700,9.15396875,-0.002046372974291444,0.0037001960445195436,-0.0021662150975316763
1772457089758987500,9.163987548828125,-0.00021651499264407903,0.004072239622473717,0.00015446334145963192
1772457089769005600,9.174005615234375,-0.003082609036937356,0.0030330740846693516,-0.0020911141764372587
1772457089779024400,9.1840244140625,-0.00020905814017169178,0.003910585772246122,-0.004849083721637726
1772457089789042400,9.19404248046875,-0.0017747305100783706,0.004173972178250551,-0.0009390306076966226
1772457089799061500,9.2040615234375,-0.0011560781858861446,0.001597896683961153,-0.0002564624010119587
1772457089809079300,9.214079345703125,-0.003989681601524353,0.004342816770076752,0.0009624664089642465
1772457089819098400,9.224098388671875,-0.0017813884187489748,0.002653573639690876,-0.0007446198142133653
1772457089829116700,9.23411669921875,-0.00026525085559114814,0.004596349783241749,0.000883636821527034
1772457089839135500,9.244135498046875,-0.0006141249323263764,0.007656854577362537,0.0010229201288893819
1772457089849153500,9.254153564453125,-0.003085272153839469,0.0065713501535356045,-0.001621332485228777
1772457089859171300,9.26417138671875,-0.0009123989730142057,0.005661081522703171,0.0008934905636124313
1772457089869190400,9.2741904296875,-0.0014261227333918214,0.002709766384214163,-0.00045859633246436715
1772457089879208400,9.28420849609375,-0.0006660565850324929,0.0036967338528484106,0.0003483414766378701
1772457089889227300,9.294227294921875,-0.0007004113867878914,0.004456533584743738,0.0003307645965833217
1772457089899245600,9.30424560546875,-0.0018522285390645266,0.005114068277180195,0.0006530070677399635
1772457089909264600,9.3142646484375,-0.0038149782922118902,0.005082376766949892,-0.0015004249289631844
1772457089919282400,9.324282470703125,0.0004087952256668359,0.006369482260197401,-0.0006428870838135481
1772457089929301500,9.334301513671875,-0.000060453756304923445,0.005283977836370468,-0.000636495475191623
1772457089939319300,9.3443193359375,-0.0010183927370235324,0.004962800536304712,-0.0013856426812708378
1772457089949338400,9.35433837890625,0.0008692557457834482,0.004230697639286518,0.0005129248020239174
1772457089959356700,9.364356689453125,-0.0014820491196587682,0.00390259618870914,0.0003153182624373585
1772457089969375500,9.37437548828125,0.00027377295191399753,0.002683933824300766,0.00044474788592197
1772457089979393500,9.3843935546875,-0.0008258462767116725,0.0037851508241146803,-0.00039281626231968403
1772457089989411600,9.39441162109375,0.00004740426811622456,0.00290391081944108,0.001466602785512805
1772457089999430400,9.404430419921875,-0.0005331648280844092,0.0043801008723676205,-0.0000881506348378025
1772457090009448400,9.414448486328125,-0.0011909656459465623,0.00421365350484848,0.0006202502408996224
1772457090019467500,9.424467529296875,-0.0007981493836268783,0.002996056107804179,-0.0015707324491813779
1772457090029485600,9.434485595703125,0.00047697214176878333,0.0015877765836194158,0.0006841660942882299
1772457090039504600,9.444504638671875,-0.0021640846971422434,0.004555337131023407,-0.0002133192028850317
1772457090049522400,9.4545224609375,-0.0010900318156927824,0.001615207176655531,-0.002198173198848963
1772457090059541500,9.46454150390625,-0.001443166984245181,0.004698881413787603,-0.000648479734081775
1772457090069559600,9.4745595703125,-0.0030743530951440334,0.006406234111636877,-0.0012157330056652427
1772457090079578400,9.484578369140625,-0.0007992146420292556,0.003652791725471616,-0.0009376989910379052
1772457090089596400,9.494596435546875,-0.0018200043123215437,0.003611512714996934,-0.0022301310673356056
1772457090099615500,9.504615478515625,-0.0029148298781365156,0.004042678512632847,0.0016106797847896814
1772457090109633500,9.514633544921875,-0.00019201391842216253,0.003882888937368989,0.00047857005847617984
1772457090119652600,9.524652587890625,-0.0009808422764763236,0.006258694920688868,-0.0016610135789960623
1772457090129670400,9.53467041015625,-0.0006258428329601884,0.005596366710960865,0.0005390237784013152
1772457090139688400,9.5446884765625,-0.00119575927965343,0.004610730800777674,0.0034293525386601686
1772457090149707500,9.55470751953125,-0.0016607472207397223,0.005126585252583027,-0.0026200178544968367
1772457090159725300,9.564725341796875,-0.0020546286832541227,0.004442685283720493,0.0006463492172770202
1772457090169744400,9.574744384765625,-0.000461259507574141,0.0007451524725183845,0.0018879148410633206
1772457090179762400,9.584762451171875,0.0004564658156596124,0.0036874127108603716,-0.00049108691746369
1772457090189781500,9.594781494140625,0.0007440872141160071,0.004303135443478823,-0.0019539613276720047
1772457090199799600,9.604799560546875,-0.0008620652370154858,0.0028783443849533796,-0.00033103092573583126
1772457090209818400,9.614818359375,-0.00013875069271307439,0.003780623432248831,0.00039468047907575965
1772457090219836400,9.62483642578125,-0.0008450209861621261,0.004781173076480627,-0.0007563377148471773
1772457090229855500,9.63485546875,-0.00126739835832268,0.005073321983218193,0.0005842975224368274
1772457090239873500,9.64487353515625,-0.0005310343112796545,0.004565723240375519,-0.00039175100391730666
1772457090249891600,9.6548916015625,-0.0017243968322873116,0.0034085798542946577,0.00031664984999224544
1772457090259910700,9.66491064453125,-0.0011166634503751993,0.0037550569977611303,-0.003561445279046893
1772457090269928400,9.674928466796874,0.0000876179983606562,0.003555852686986327,-0.0025901903863996267
1772457090279947500,9.684947509765625,-0.000770452490542084,0.004479703027755022,0.0026764769572764635
1772457090289965300,9.69496533203125,0.0007360977469943464,0.005146825220435858,-0.00044022052315995097
1772457090299984400,9.704984375,-0.003516171593219042,0.004640291910618544,-0.0018082864116877317
1772457090310002700,9.715002685546875,-0.0008343683439306915,0.004618986509740353,-0.0015299860388040543
1772457090320021500,9.725021484375,-0.0026375947054475546,0.00774553744122386,-0.0009856359101831913
1772457090330039600,9.73503955078125,-0.0019856528379023075,0.005593437235802412,-0.0008711199625395238
1772457090340058600,9.74505859375,-0.001073786523193121,0.0028130970895290375,-0.00009986854274757206
1772457090350076400,9.755076416015624,0.00023915186466183513,0.004567853640764952,0.000761664065066725
1772457090360095500,9.765095458984375,-0.0017803232185542583,0.003796336008235812,0.0036330842413008213
1772457090370113300,9.77511328125,-0.002124936319887638,0.0029257487040013075,0.0004772384709212929
1772457090380131600,9.785131591796874,0.001341700553894043,0.0038687740452587605,0.00222027744166553
1772457090390150700,9.795150634765625,0.00004314320904086344,0.005791310220956802,0.0016138756182044744
1772457090400168400,9.80516845703125,-0.0013877731980755925,0.006118612363934517,-0.001981391804292798
1772457090410187500,9.8151875,-0.004633633885532618,0.0044080642983317375,-0.00025220136740244925
1772457090420205600,9.82520556640625,-0.00022157499915920198,0.002544117858633399,-0.0007214503129944205
1772457090430224400,9.835224365234374,-0.0011355718597769737,0.0032661007717251778,-0.0005858954391442239
1772457090440242400,9.845242431640624,-0.0017486315919086337,0.005583050660789013,0.00004314320904086344
1772457090450261500,9.855261474609375,-0.000699079770129174,0.004570783115923405,-0.0006269080913625658
1772457090460279600,9.865279541015624,-0.0018708707066252828,0.0038418760523200035,-0.0010626012226566672
1772457090470298600,9.875298583984375,-0.0027715517207980156,0.004231230355799198,0.0008178567513823509
1772457090480316400,9.88531640625,-0.0009576727170497179,0.0038250982761383057,-0.0006181196658872068
1772457090490335500,9.89533544921875,-0.0014176006661728024,0.0029318740125745535,-0.0024351945612579584
1772457090500353500,9.905353515625,-0.0012974920682609081,0.002038117265328765,-0.0007789746159687638
1772457090510371300,9.915371337890624,-0.0006878945278003812,0.006269347388297319,0.00018029600323643535
1772457090520390400,9.925390380859374,-0.003120958572253585,0.002977680414915085,-0.00020959076937288046
1772457090530408400,9.935408447265624,-0.001461010193452239,0.004019775427877903,-0.0017723336350172758
1772457090540427500,9.945427490234374,-0.0034850125666707754,0.004445082042366266,-0.000752875639591366
1772457090550445600,9.955445556640624,-0.0020698087755590677,0.007033142261207104,-0.001514273346401751
1772457090560464400,9.96546435546875,-0.0012189288390800357,0.0038506644777953625,-0.0036282907240092754
1772457090570482400,9.975482421875,-0.002010952914133668,0.005291434936225414,-0.0021433120127767324
1772457090580501500,9.98550146484375,-0.0023166837636381388,0.0032264196779578924,-0.0011949603212997317
1772457090590519600,9.99551953125,-0.0001680454588495195,0.0036975329276174307,-0.0003424825263209641
1772457090600538400,10.005538330078124,-0.00245143985375762,0.0030005834996700287,0.001178182428702712
1772457090610556400,10.015556396484374,-0.0033457293175160885,0.004033890087157488,-0.002484196564182639
1772457090620574500,10.025574462890624,-0.0007659250986762345,0.005005677696317434,0.002487925114110112
1772457090630593500,10.035593505859374,-0.0028783443849533796,0.004769188817590475,0.00041811628034338355
1772457090640611300,10.045611328125,-0.0036706349346786737,0.003840544493868947,-0.0015614113071933389
1772457090650630400,10.05563037109375,-0.002225070958957076,0.0028011128306388855,-0.0010876349406316876
1772457090660648700,10.065648681640624,-0.0015840481501072645,0.004202201962471008,0.000022370553779182956
1772457090670667500,10.07566748046875,-0.0033047166652977467,0.0057622818276286125,-0.0013957626651972532
1772457090680685600,10.085685546875,-0.0013363742036744952,0.006759635638445616,0.0018037590198218822
1772457090690704600,10.09570458984375,-0.0030064424499869347,0.0049430932849645615,-0.0006191849242895842
1772457090700722400,10.105722412109374,0.00003861583536490798,0.004122839774936438,0.000258859246969223
1772457090710741500,10.115741455078124,0.00022290658671408892,0.003608316881582141,-0.0013028184184804559
1772457090720759300,10.12575927734375,-0.0029965888243168592,0.004722317215055227,-0.00025273399660363793
1772457090730778400,10.1357783203125,-0.0000900148443179205,0.003198190126568079,-0.00024234765442088246
1772457090740796700,10.145796630859374,-0.003266367129981518,0.002959570847451687,-0.0009675264009274542
1772457090750814500,10.155814453125,-0.0006261091912165284,0.0052325790748000145,-0.001520398654974997
1772457090760833800,10.165833740234374,-0.0014948323369026184,0.0038866172544658184,-0.0031076427549123764
1772457090770851800,10.175851806640624,-0.002058889716863632,0.003896470880135894,-0.0005512743373401463
1772457090780871000,10.185870849609374,-0.0023039006628096104,0.0026849990244954824,-0.001757952617481351
1772457090790888700,10.195888671875,-0.0005779059720225632,0.004473311826586723,-0.001907089608721435
1772457090800907800,10.20590771484375,-0.0020876519847661257,0.0041430797427892685,0.00025513084256090224
1772457090810925800,10.21592578125,-0.0024051007349044085,0.004096208140254021,-0.001091896090656519
1772457090820945000,10.22594482421875,-0.00007483482477255166,0.005736715160310268,0.0007970841252245009
1772457090830963000,10.235962890625,0.00033582461765035987,0.003141997382044792,0.0009387642494402826
1772457090840981800,10.245981689453124,-0.0025885924696922302,0.0029353362042456865,0.0022011026740074158
1772457090850999800,10.255999755859374,-0.0024730113800615072,0.00504109775647521,-0.0015952334506437182
1772457090861019000,10.266018798828124,-0.0020897823851555586,0.005247492343187332,-0.0003707120195031166
1772457090871036700,10.27603662109375,-0.0020157466642558575,0.003156378399580717,0.000010652644050423987
1772457090881055000,10.286054931640624,0.0015297196805477142,0.005418733693659306,0.0015643407823517919
1772457090891073800,10.29607373046875,-0.0026165556628257036,0.004739894066005945,0.00034887410583905876
1772457090901091800,10.306091796875,-0.002285258611664176,0.004372644238173962,-0.0006828344776295125
1772457090911111000,10.31611083984375,-0.0008250473183579743,0.005315402988344431,-0.003215766977518797
1772457090921128700,10.326128662109374,0.0005158542771823704,0.004179032519459724,-0.0003020024741999805
1772457090931147800,10.336147705078124,-0.0007084008539095521,0.0031696942169219255,0.0036522590089589357
1772457090941165800,10.346165771484374,-0.0022277343086898327,0.0035489285364747047,-0.0018402442801743746
1772457090951184600,10.3561845703125,-0.00026604978484101593,0.0030333404429256916,-0.0010985539993271232
1772457090961203000,10.366202880859374,-0.0015819176333025098,0.003478354774415493,0.00035420042695477605
1772457090971220700,10.376220703125,-0.002142513170838356,0.005891977343708277,0.0002162486780434847
1772457090981239800,10.38623974609375,-0.0037020600866526365,0.005135905928909779,-0.0009683253592811525
1772457090991257900,10.3962578125,-0.002569950418546796,0.002718821167945862,0.0012740562669932842
1772457091001276700,10.406276611328124,-0.002424275502562523,0.00412390474230051,0.001318264752626419
1772457091011294700,10.416294677734374,-0.001210673013702035,0.004135622642934322,0.0010705908061936498
1772457091021313800,10.426313720703124,-0.002284725895151496,0.005829393398016691,-0.0020663465838879347
1772457091031331800,10.436331787109374,-0.0018524948973208666,0.0054853130131959915,-0.0006570018595084548
1772457091041351000,10.446350830078124,-0.0005605954211205244,0.005687713157385588,-0.0013177321525290608
1772457091051368700,10.45636865234375,-0.0017307883827015758,0.004416320007294416,0.0005001416429877281
1772457091061386800,10.46638671875,-0.0009691243176348507,0.0020245350897312164,-0.00032330775866284966
1772457091071405800,10.47640576171875,-0.0005286374944262207,0.0030011162161827087,0.0014349111588671803
1772457091081424000,10.486423828125,-0.0014479606179520488,0.002817890839651227,-0.0007115966291166842
1772457091091443000,10.49644287109375,-0.0011864382540807128,0.0036879454273730516,0.0025395904667675495
1772457091101460700,10.506460693359376,-0.0022631543688476086,0.004092745948582888,-0.001505751279182732
1772457091111479800,10.516479736328124,-0.0011472897604107857,0.002665291540324688,-0.0023289343807846308
1772457091121497900,10.526497802734376,-0.001023186487145722,0.005928995553404093,-0.0006522081675939262
1772457091131516700,10.5365166015625,-0.0013491574209183455,0.0029736857395619154,-0.00028096348978579044
1772457091141534700,10.54653466796875,-0.002409894485026598,0.004310592543333769,-0.002588059986010194
1772457091151553800,10.5565537109375,-0.001663144095800817,0.0046690539456903934,-0.00227939966134727
1772457091161571800,10.56657177734375,-0.0007371630053967237,0.005702360533177853,-0.00086872314568609
1772457091171591000,10.5765908203125,-0.0023065637797117233,0.004085022956132889,-0.0009616674506105483
1772457091181609000,10.58660888671875,0.0003683151735458523,0.006191583350300789,-0.0012679309584200382
1772457091191626800,10.596626708984376,0.000031158982892520726,0.004536428488790989,-0.0011856392957270145
1772457091201645800,10.606645751953126,-0.0010839065071195364,0.005310875829309225,0.00041625206358730793
1772457091211663600,10.61666357421875,-0.0012279836228117347,0.0038810246624052525,0.0014274542918428779
1772457091221682700,10.6266826171875,-0.0008391620358452201,0.003195260651409626,0.0013161342358216643
1772457091231701000,10.636700927734376,0.0005693838465958834,0.004237888380885124,0.00016218650853261352
1772457091241719800,10.6467197265625,-0.0014066817238926888,0.005796370096504688,-0.001160339335910976
1772457091251737900,10.65673779296875,-0.0019345202017575502,0.0024586303625255823,-0.003725496120750904
1772457091261757000,10.6667568359375,-0.0009542105835862458,0.007104514632374048,0.001193096162751317
1772457091271774700,10.676774658203126,-0.00031079089967533946,0.0029257487040013075,0.002034388715401292
1772457091281793800,10.686793701171876,0.0015006912872195244,0.0054421694949269295,0.0016666061710566282
1772457091291811600,10.6968115234375,-0.000723048229701817,0.004267715383321047,-0.000013848437447450124
1772457091301830000,10.706829833984376,-0.0008796420879662037,0.0029518476221710443,-0.0008980178972706199
1772457091311849700,10.716849609375,0.0009100021561607718,0.003938016481697559,-0.0010351707460358739
1772457091321867800,10.72686767578125,-0.001270327833481133,0.0027105652261525393,0.00009400958515470847
1772457091331886800,10.736886962890624,-0.0006439523422159255,0.0038133803755044937,-0.000964064325671643
1772457091341905000,10.74690478515625,-0.002584597794339061,0.004447212442755699,-0.0030658310279250145
1772457091351923700,10.756923828125,-0.0011880361707881093,0.003206712193787098,-0.002454369328916073
1772457091361941800,10.766941650390624,-0.003725496120750904,0.004430168308317661,-0.000031158982892520726
1772457091371960800,10.7769609375,-0.002844256116077304,0.003888215171173215,-0.0022770026698708534
1772457091381978600,10.786978515625,-0.0007315703551284969,0.00378994457423687,-0.0012903015594929457
1772457091391997700,10.796997802734374,0.0007422229973599315,0.0035294874105602503,0.0012857741676270962
1772457091402016000,10.80701611328125,-0.0005499427788890898,0.004821919370442629,0.00036938043194822967
1772457091412033800,10.81703369140625,-0.000979244359768927,0.003266367129981518,0.00014061490946915
1772457091422052900,10.827052978515624,0.0004985437262803316,0.003724963404238224,0.00034594463068060577
1772457091432070700,10.837070556640626,-0.0031286815647035837,0.0049588060937821865,-0.00466505903750658
1772457091442089700,10.84708984375,-0.0016873788554221392,0.005915413144975901,-0.000284159294096753
1772457091452108000,10.85710791015625,-0.0008351673022843897,0.0034290861804038286,0.0012985573848709464
1772457091462126800,10.867126953125,-0.0021523667965084314,0.004765193909406662,0.00025246766745112836
1772457091472145000,10.877144775390626,-0.002430400811135769,0.0021920478902757168,-0.0017984326696023345
1772457091482164000,10.8871640625,-0.0022897860035300255,0.005346828605979681,-0.0006434197421185672
1772457091492181800,10.897181640625,-0.002989664673805237,0.0029947245493531227,0.003596598980948329
1772457091502200800,10.907200927734374,-0.0035630431957542896,0.004779841285198927,0.00012303804396651685
1772457091512218600,10.917218505859376,-0.00022130868455860764,0.0028791434597223997,0.0011685950448736548
1772457091522237000,10.92723681640625,-0.0022650184109807014,0.004234692547470331,-0.0013496900210157037
1772457091532256000,10.937256103515624,-0.00126766471657902,0.004196875728666782,0.001133707701228559
1772457091542273800,10.947273681640626,-0.0009046758059412241,0.0038304245099425316,0.001472461735829711
1772457091552292900,10.95729296875,-0.002817890839651227,0.0057249972596764565,-0.0004953479510731995
1772457091562310700,10.967310546875,-0.002302569104358554,0.0041068606078624725,0.0017097494564950466
1772457091572329700,10.977329833984374,-0.00518810423091054,0.004831773228943348,-0.002433063928037882
1772457091582347800,10.98734765625,0.00011451592581579462,0.004171309061348438,-0.00044314999831840396
1772457091592366600,10.99736669921875,-0.0017856494523584843,0.004548945464193821,0.0016077503096312284
1772457091602385000,11.007385009765626,-0.0020993698853999376,0.0035955337807536125,-0.0003283677506260574
1772457091612404000,11.017404052734374,-0.0009693906176835299,0.004543352872133255,-0.002225603675469756
1772457091622421800,11.027421875,-0.0033547841012477875,0.0062911855056881905,-0.0004340952436905354
1772457091632440800,11.03744091796875,-0.0022453111596405506,0.002743588527664542,-0.001050350721925497
1772457091642459000,11.047458984375,-0.0026346652302891016,0.0029172266367822886,0.00044474788592197
1772457091652476700,11.0574765625,-0.004737763665616512,0.0030250847339630127,-0.0022972426377236843
1772457091662495700,11.067495849609376,-0.009062204509973526,0.01565326191484928,0.10551977157592773
1772457091672513800,11.077513671875,-0.004164917394518852,0.008021707646548748,0.20077064633369446
1772457091682532900,11.087532958984376,-0.0002002697146963328,-0.0013427657540887594,0.20435340702533722
1772457091692551000,11.097551025390626,-0.0010167949367314577,-0.0013334447285160422,0.06034936010837555
1772457091702569700,11.10756982421875,0.001540904981084168,-0.005591573193669319,-0.13522173464298248
1772457091712587800,11.117587890625,-0.009348494000732899,0.007595335599035025,-0.26675179600715637
1772457091722606800,11.12760693359375,-0.002124403603374958,0.0062858592718839645,-0.3280196785926819
1772457091732625000,11.137625,-0.00039254993316717446,0.006970025133341551,0.05601320043206215
1772457091742643700,11.147643798828126,-0.0028306739404797554,0.003990480676293373,0.2257942408323288
