time,seconds_elapsed,z,y,x
1772457080670975000,0.07597509765625,-0.00016450858674943447,-0.00042802421376109123,-0.003494741627946496
1772457080680992800,0.08599267578125,0.0006645334651693702,-0.0005843518301844597,-0.06279641389846802
1772457080691011800,0.09601171875,-0.00015105854254215956,0.0023289858363568783,0.003262125886976719
1772457080701030000,0.10602978515625,0.0002707861131057143,0.0016783755272626877,0.04362419620156288
1772457080711049000,0.116049072265625,0.0015652141300961375,0.0002993401139974594,-0.006107891909778118
1772457080721067000,0.12606689453125,-0.0010502763325348496,0.0006799055263400078,-0.030668362975120544
1772457080731086000,0.136086181640625,-0.0008539997506886721,-0.0017574741505086422,0.004831631667912006
1772457080741103900,0.146103759765625,0.00220437441021204,-0.00014386465772986412,0.024007456377148628
1772457080751122400,0.156122314453125,0.0021758349612355232,0.0013629868626594543,-0.007469366770237684
1772457080761140500,0.166140380859375,0.0011017820797860622,-0.001049304148182273,-0.016936903819441795
1772457080771159600,0.17615966796875,-0.0007808033842593431,-0.00041158730164170265,0.006352819036692381
1772457080781177600,0.186177490234375,0.00003199337515980005,0.0009381026029586792,0.011731338687241077
1772457080791196700,0.19619677734375,0.00008134800009429455,-0.0027767010033130646,-0.004190768115222454
1772457080801214500,0.20621435546875,0.00021024502348154783,0.00021216506138443947,-0.008367137983441353
1772457080811233500,0.216233642578125,0.0006422569858841598,0.0014525195583701134,0.004895907826721668
1772457080821251600,0.22625146484375,0.00007340579759329557,-0.0012892046943306923,0.004226389341056347
1772457080831270400,0.2362705078125,-0.0007312708767130971,-0.0003184778615832329,-0.0020584126468747854
1772457080841288400,0.246288330078125,-0.0009893312817439437,0.0008490518666803837,-0.0039732251316308975
1772457080851307500,0.2563076171875,-0.00006760703399777412,-0.00026777666062116623,0.0010115827899426222
1772457080861325600,0.26632568359375,0.0013950009597465396,0.0013306527398526669,0.001508262357674539
1772457080871344600,0.2763447265625,-0.0016157933278009295,0.0008954061195254326,-0.004831487312912941
1772457080881362700,0.28636279296875,-0.0007718376582488418,0.0012160507030785084,-0.0018548716325312853
1772457080891381500,0.296381591796875,0.0019976282492280006,-0.00024339649826288223,0.0029573177453130484
1772457080901399600,0.306399658203125,0.00036617578007280827,-0.0012255702167749405,0.0023370676208287477
1772457080911418600,0.316418701171875,0.0002421598182991147,0.0007824376225471497,-0.0013442954514175653
1772457080921436700,0.326436767578125,-0.000432418892160058,-0.00030413223430514336,0.0001377536973450333
1772457080931455500,0.33645556640625,0.0005586785264313221,-0.0007283231243491173,-0.00014139394625090063
1772457080941473500,0.3464736328125,-0.0004344142507761717,0.0023438995704054832,-0.0008117115939967334
1772457080951492600,0.35649267578125,-0.0012695800978690386,-0.0010503542143851519,-0.002416209550574422
1772457080961510700,0.3665107421875,-0.0005467981100082397,-0.0008865697309374809,0.0016608237056061625
1772457080971529500,0.376529541015625,0.0004907697439193726,-0.002675415016710758,0.0006975583964958787
1772457080981547500,0.386547607421875,-0.0010237700771540403,-0.0013816512655466795,0.002955652540549636
1772457080991566600,0.396566650390625,0.0007759919972158968,-0.0019607790745794773,-0.0039242045022547245
1772457081001584600,0.406584716796875,-0.0002786198165267706,0.0007702927105128765,-0.0000783335417509079
1772457081011603700,0.416603759765625,0.0002789136487990618,-0.0003582495264708996,-0.000402811449021101
1772457081021621500,0.42662158203125,-0.00007022672798484564,0.0007267226465046406,0.001299214782193303
1772457081031640600,0.436640625,0.00027802924159914255,0.0007876688614487648,0.0005850869929417968
1772457081041658600,0.44665869140625,0.0004977399948984385,-0.0011585692409425974,0.002093235030770302
1772457081051677400,0.456677490234375,0.002038510050624609,-0.0015301487874239683,-0.0005083587020635605
1772457081061695500,0.466695556640625,0.0002640457823872566,0.0024590003304183483,-0.0022162438835948706
1772457081071714600,0.476714599609375,0.0012423100415617228,-0.00028635887429118156,0.0015261084772646427
1772457081081732600,0.486732666015625,0.00033124256879091263,0.0018673394806683064,0.0005279555916786194
1772457081091751700,0.496751708984375,-0.001115786493755877,0.00007811840623617172,-0.0009675707551650703
1772457081101769500,0.50676953125,-0.0008667811052873731,0.0009351237677037716,-0.0026717274449765682
1772457081111788500,0.51678857421875,0.0004043051740154624,-0.0004703595768660307,-0.0007257102988660336
1772457081121806600,0.526806640625,0.00044238835107535124,0.0013389922678470612,-0.0008839020738378167
1772457081131825400,0.536825439453125,-0.0010237249080091715,0.000798344612121582,-0.0006426868494600058
1772457081141843500,0.546843505859375,-0.0009108067024499178,0.001091026235371828,0.0006774421199224889
1772457081151862500,0.556862548828125,0.000210518017411232,0.0006008385680615902,-0.0010185637511312962
1772457081161880600,0.566880615234375,0.0033181607723236084,0.0003992370329797268,-0.00006302155088633299
1772457081171899600,0.576899658203125,-0.0010274515952914953,-0.0015341155230998993,0.0009384884615428746
1772457081181917700,0.586917724609375,-0.0005371638108044863,0.00032051000744104385,0.00151160079985857
1772457081191936500,0.5969365234375,-0.0008425413398072124,0.001831823494285345,-0.001321545452810824
1772457081201954600,0.60695458984375,-0.001954677514731884,0.0009199571795761585,0.0007157727377489209
1772457081211973600,0.6169736328125,-0.0009000657591968775,-0.0000529005192220211,0.0002057208475889638
1772457081221991400,0.626991455078125,-0.0007032582070678473,-0.000389790628105402,-0.0013333200477063656
1772457081232010500,0.637010498046875,-0.00003347464371472597,-0.00009496835991740227,-0.002363543724641204
1772457081242028500,0.647028564453125,-0.0026644114404916763,0.0014821556396782398,0.0010024255607277155
1772457081252047600,0.657047607421875,0.0015796966617926955,-0.0005574026145040989,0.0003718832740560174
1772457081262065700,0.667065673828125,-0.0008765367092564702,0.0014559472911059856,0.0002736126189120114
1772457081272084500,0.67708447265625,0.000014163553714752197,-0.0014593347441405058,0.000006336093065328896
1772457081282102500,0.6871025390625,-0.0005453665507957339,-0.000050788745284080505,-0.0002538547560106963
1772457081292121600,0.69712158203125,-0.000387512962333858,0.003337755799293518,-0.0014718526508659124
1772457081302139600,0.7071396484375,-0.0008921819971874356,-0.0008242323528975248,0.00043070962419733405
1772457081312158500,0.717158447265625,0.0012709501897916198,0.0013192351907491684,0.0005893020424991846
1772457081322176500,0.727176513671875,-0.0007847439264878631,0.0003873948007822037,-0.0009247050620615482
1772457081332195600,0.737195556640625,-0.0017384280217811465,-0.000380923505872488,-0.0027698667254298925
1772457081342213600,0.747213623046875,-0.0006406732136383653,0.0013184398412704468,0.0008797291666269302
1772457081352232400,0.757232421875,0.0008632903918623924,-0.0001274794340133667,-0.0012118610320612788
1772457081362250500,0.76725048828125,0.00024090963415801525,0.0008264649659395218,0.0007668677717447281
1772457081372269600,0.77726953125,-0.0006605031667277217,0.0004391125403344631,-0.00125027762260288
1772457081382287600,0.78728759765625,-0.00032441236544400454,-0.00008766073733568192,0.0022698885295540094
1772457081392306700,0.797306640625,-0.0004054224118590355,0.0008395467884838581,0.002036366378888488
1772457081402324700,0.80732470703125,0.004082003608345985,-0.0009247972629964352,-0.0015788746532052755
1772457081412343600,0.817343505859375,0.0005768152186647058,0.0005246778018772602,-0.0019190062303096056
1772457081422361600,0.827361572265625,0.0004580381792038679,-0.001117959851399064,0.0003763723070733249
1772457081432380700,0.837380615234375,0.0009869320783764124,-0.00027602165937423706,0.0004493756568990648
1772457081442398500,0.8473984375,-0.0005569024942815304,-0.00031969742849469185,-0.003645766992121935
1772457081452417500,0.85741748046875,0.002508301753550768,0.0002630022354424,0.00021746066340710968
1772457081462435600,0.867435546875,0.0004187856102362275,-0.0003101103939116001,-0.001766860717907548
1772457081472454700,0.87745458984375,-0.000004399102181196213,-0.0017023729160428047,-0.00022968392295297235
1772457081482472700,0.88747265625,0.0004994709743186831,0.0022545517422258854,-0.0023599464911967516
1772457081492491500,0.897491455078125,0.001238412456586957,-0.0000615948811173439,-0.0011492164339870214
1772457081502509600,0.907509521484375,-0.0008649522205814719,-0.0020230128429830074,-0.0024499043356627226
1772457081512528600,0.917528564453125,0.001227982109412551,-0.0010792345274239779,0.001277219969779253
1772457081522546400,0.92754638671875,0.0008218499715439975,0.00014315638691186905,0.0010167628061026335
1772457081532565500,0.9375654296875,0.00027222465723752975,0.0018724575638771057,-0.000363340339390561
1772457081542583600,0.94758349609375,-0.00047692260704934597,-0.00022291718050837517,0.0014489407185465097
1772457081552602600,0.9576025390625,0.0025242671836167574,-0.00022706249728798866,0.00034141220385208726
1772457081562620700,0.96762060546875,0.000020895851776003838,-0.0010630288161337376,-0.0005784436361864209
1772457081572639500,0.977639404296875,0.0016592295141890645,-0.0009082208853214979,0.00017334138101432472
1772457081582657500,0.987657470703125,-0.00024892541114240885,-0.00009142933413386345,0.0006228829734027386
1772457081592676600,0.997676513671875,0.00004243268631398678,-0.0004098196513950825,-0.00088760897051543
1772457081602694400,1.0076943359375,0.00022059818729758263,-0.0023954727221280336,0.000040236307540908456
1772457081612713500,1.01771337890625,0.0008607262279838324,-0.001220647245645523,0.00013477052561938763
1772457081622731500,1.0277314453125,0.00017123378347605467,-0.0002533872611820698,-0.0017749823164194822
1772457081632750600,1.03775048828125,0.0009192901779897511,-0.000009407754987478256,0.0009816933888942003
1772457081642768600,1.0477685546875,0.0008748153341002762,-0.0010757374111562967,0.00027835246874019504
1772457081652787500,1.057787353515625,-0.0023062187246978283,0.00045692967250943184,0.0009861437138170004
1772457081662805500,1.067805419921875,0.00025494303554296494,-0.0011010193265974522,-0.0008937816601246595
1772457081672824600,1.077824462890625,0.0029255193658173084,0.0003230324946343899,0.0012116037542000413
1772457081682842400,1.08784228515625,0.0005110977217555046,0.0002356809563934803,-0.0004350287199486047
1772457081692861400,1.097861328125,0.0006492490065284073,0.006078943144530058,0.024014262482523918
1772457081702879700,1.107879638671875,0.0005432552425190806,0.002881019376218319,0.047637831419706345
1772457081712898600,1.117898681640625,-0.0005435209022834897,-0.00005509098991751671,-0.005669275764375925
1772457081722916600,1.12791650390625,-0.001645004260353744,0.000544919166713953,-0.03761735558509827
1772457081732935700,1.137935791015625,-0.00046155042946338654,0.0011201156303286552,-0.0015573360724374652
1772457081742954000,1.1479541015625,0.00338325509801507,-0.0024077738635241985,0.0131949782371521
1772457081752973000,1.15797314453125,0.0013406394282355905,-0.0015014107339084148,-0.02773933857679367
1772457081762990800,1.167990966796875,0.0013640752295032144,0.0017891908064484596,-0.036079294979572296
1772457081773010000,1.178010009765625,-0.00020284333731979132,-0.000011747237294912338,0.015937872231006622
1772457081783028200,1.1880283203125,-0.0003583719953894615,0.0006585703231394291,0.020695609971880913
1772457081793047000,1.198047119140625,-0.000004263129085302353,-0.0003623529337346554,-0.013580109924077988
1772457081803065000,1.208065185546875,0.002959835110232234,0.0013170363381505013,-0.01449890062212944
1772457081813084200,1.218084228515625,0.00037482648622244596,-0.0007942121010273695,0.011452700011432171
1772457081823102000,1.22810205078125,-0.001308557577431202,0.0017760046757757664,0.006029705982655287
1772457081833121000,1.23812109375,-0.00012794602662324905,0.0009325146675109863,-0.009800000116229057
1772457081843139000,1.24813916015625,-0.00033380836248397827,0.0002693873830139637,-0.0049322741106152534
1772457081853158000,1.258157958984375,-0.000024989014491438866,-0.0006542506162077188,0.005154564511030912
1772457081863176200,1.26817626953125,-0.0015999823808670044,-0.00026995642110705376,0.0027947374619543552
1772457081873195300,1.2781953125,-0.0006914130644872785,-0.001899050548672676,-0.0058305771090090275
1772457081883213000,1.288213134765625,-0.0011460146633908153,-0.00044283410534262657,-0.0035703524481505156
1772457081893232000,1.298232177734375,0.0009842341532930732,-0.0007163314148783684,0.004729921463876963
1772457081903250000,1.30825,0.00004280672874301672,-0.000250278040766716,0.0020374658051878214
1772457081913269000,1.31826904296875,0.0006963757914490998,-0.0002226117067039013,-0.0026146864984184504
1772457081923287000,1.328287109375,-0.0019284358713775873,0.0000929730013012886,-0.001634643180295825
1772457081933305900,1.338305908203125,-0.001124262809753418,-0.00037806248292326927,0.0031926215160638094
1772457081943324200,1.34832421875,-0.0005942939314991236,-0.0002867160364985466,-0.0005762841901741922
1772457081953343200,1.35834326171875,-0.0010385692585259676,-0.0018431104253977537,-0.0030591755639761686
1772457081963361000,1.368361083984375,-0.0003224452957510948,-0.00019061891362071037,0.0013819116866216063
1772457081973380000,1.378380126953125,-0.002047251909971237,-0.000024345237761735916,0.001501172431744635
1772457081983398000,1.38839794921875,-0.0003646666882559657,-0.0005356722977012396,0.0017986474558711052
1772457081993417000,1.3984169921875,0.002040247432887554,0.00286292377859354,-0.0017589752096682787
1772457082003435000,1.40843505859375,0.0005896235816180706,0.000057017430663108826,0.00017980615666601807
1772457082013454000,1.4184541015625,-0.0014022925170138478,0.0010103080421686172,0.0011560161365196109
1772457082023472000,1.42847216796875,-0.00044888106640428305,0.0011938000097870827,-0.0007484104135073721
1772457082033491200,1.4384912109375,0.001485369517467916,-0.00015981774777173996,0.0005807167617604136
1772457082043509000,1.448509033203125,0.0009095940622501075,-0.0006503721233457327,0.001292579690925777
1772457082053528000,1.458528076171875,0.0014654385158792138,0.0007966523990035057,0.001849683583714068
1772457082063545900,1.4685458984375,-0.00008532020729035139,-0.002473443280905485,-0.0008345165406353772
1772457082073565000,1.47856494140625,-0.001517173950560391,-0.0008633187972009182,0.001060903538018465
1772457082083583200,1.488583251953125,0.001880220603197813,-0.0003940700553357601,0.001164766843430698
1772457082093602000,1.49860205078125,-0.0004549361765384674,-0.0006281337700784206,-0.0005147727788425982
1772457082103620000,1.5086201171875,0.000046004424802958965,-0.0011250795796513557,-0.0013728432822972536
1772457082113639200,1.51863916015625,-0.0005819288780912757,0.0014039850793778896,0.00010577027569524944
1772457082123657000,1.528656982421875,0.001014369772747159,-0.0021268336568027735,0.0007238899706862867
1772457082133676000,1.538676025390625,-0.0018487157067283988,-0.0014692340046167374,-0.00020003602548968047
1772457082143694000,1.548694091796875,-0.0005267224041745067,0.0002948436886072159,0.0014734944561496377
1772457082153713000,1.558712890625,-0.0011258074082434177,-0.0013569793663918972,0.00008247699588537216
1772457082163731200,1.568731201171875,-0.0031844312325119972,-0.00012526754289865494,0.0028228696901351213
1772457082173750300,1.578750244140625,0.00027278962079435587,-0.001585702644661069,-0.0011070409091189504
1772457082183768000,1.58876806640625,0.0015958480071276426,-0.0007065932732075453,-0.0012615042505785823
1772457082193787100,1.598787109375,-0.00030751468148082495,-0.0006049468647688627,-0.0022983700037002563
1772457082203805000,1.608804931640625,-0.0015107309445738792,0.004506990313529968,0.042894940823316574
1772457082213824000,1.618823974609375,-0.0002025027060881257,0.00043266965076327324,0.0688965767621994
1772457082223842000,1.628842041015625,-0.0013441999908536673,-0.00011301226913928986,-0.035647403448820114
1772457082233860900,1.63886083984375,-0.0024653454311192036,0.002632343675941229,-0.07292695343494415
1772457082243879200,1.648879150390625,0.0020939866080880165,0.0007175309583544731,0.0020503539126366377
1772457082253898200,1.658898193359375,-0.0004744548350572586,0.0012257141061127186,0.023093607276678085
1772457082263916000,1.668916015625,0.000043530017137527466,0.00007789162918925285,-0.020346811041235924
1772457082273935000,1.67893505859375,-0.00009056099224835634,0.0016655349172651768,-0.019482510164380074
1772457082283953000,1.688952880859375,-0.00003756408113986254,0.0008162525482475758,0.013704204000532627
1772457082293972000,1.698971923828125,0.0006726582068949938,0.0012138094753026962,0.008819100446999073
1772457082303990000,1.708989990234375,0.0012929084477946162,-0.0008160518482327461,-0.013199915178120136
1772457082314008800,1.7190087890625,-0.00016677042003721,0.00022256700322031975,-0.0032040062360465527
1772457082324027100,1.729027099609375,0.0010039552580565214,-0.001160146202892065,0.007577535230666399
1772457082334046200,1.739046142578125,0.0005502391140908003,-0.0002920283004641533,-0.0013083871454000473
1772457082344064000,1.74906396484375,-0.0020916168577969074,-0.0014007024001330137,-0.006868801079690456
1772457082354083000,1.7590830078125,0.0003017681883648038,-0.00008222879841923714,-0.0008260321337729692
1772457082364101000,1.76910107421875,-0.0009097036672756076,-0.0012790535110980272,0.005088315811008215
1772457082374120000,1.779119873046875,0.0006362155545502901,0.0012056753039360046,0.0020341197960078716
1772457082384138000,1.789137939453125,-0.001521477592177689,0.0016184649430215359,-0.002584333997219801
1772457082394157000,1.799156982421875,-0.0005554982926696539,-0.00022031227126717567,-0.0018725012196227908
1772457082404175000,1.809175048828125,0.00044505135156214237,0.0004087267443537712,0.002887100214138627
1772457082414194200,1.819194091796875,-0.00015397381503134966,-0.0007579706143587828,-0.0015627001412212849
1772457082424212000,1.8292119140625,-0.001794747426174581,0.002029027324169874,-0.0025280960835516453
1772457082434231000,1.83923095703125,-0.0008426590356975794,0.0013294322416186333,-0.0014069052413105965
1772457082444249000,1.8492490234375,0.0012220897478982806,-0.0011856572236865759,0.0014906140277162194
1772457082454268000,1.859267822265625,0.0004815176362171769,0.00009046634659171104,-0.0019095297902822495
1772457082464286200,1.8692861328125,0.0018831392517313361,-0.0005915691144764423,-0.0034986380487680435
1772457082474305300,1.87930517578125,0.0019507419783622026,-0.0001799347810447216,0.00456677470356226
1772457082484323000,1.889322998046875,0.0013427423546090722,0.0010070358403027058,0.0005137099651619792
1772457082494342100,1.899342041015625,0.000987168517895043,-0.0011383478995412588,-0.000007860697223804891
1772457082504360000,1.90935986328125,0.0003754404606297612,-0.001061648828908801,0.0023783317301422358
1772457082514379000,1.91937890625,0.0015761296963319182,0.0011845375411212444,-0.0020327104721218348
1772457082524397000,1.92939697265625,0.00018489430658519268,-0.0004692855291068554,-0.0013408211525529623
1772457082534415000,1.9394150390625,-0.0001631381455808878,0.00034382613375782967,0.00004222558345645666
1772457082544434200,1.94943408203125,-0.0009631518041715026,-0.00018853973597288132,-0.0005889435997232795
1772457082554452000,1.959451904296875,-0.00030641688499599695,-0.00171104003675282,0.0005194640252739191
1772457082564471000,1.969470947265625,0.0010637794621288776,-0.0005107533652335405,0.0003213248564861715
1772457082574489000,1.979489013671875,0.0006837001419626176,0.0021492773666977882,-0.00035950285382568836
1772457082584508000,1.9895078125,0.000024035107344388962,0.0013034576550126076,-0.00026416173204779625
1772457082594526000,1.99952587890625,-0.0006067386129871011,0.0003494829870760441,0.00196069129742682
1772457082604545000,2.009544921875,0.0008417547214776278,-0.000406055711209774,-0.0002185732446378097
1772457082614563000,2.01956298828125,0.0020206470508128405,-0.00229638465680182,-0.0008725136867724359
1772457082624582100,2.02958203125,-0.00025475770235061646,-0.0030423360876739025,0.0008622694294899702
1772457082634600200,2.03960009765625,0.0014117535902187228,0.000987837091088295,0.0012450816575437784
1772457082644619000,2.049618896484375,-0.001021043979562819,-0.0007701155263930559,0.000711384229362011
1772457082654637000,2.059636962890625,-0.0026275948621332645,-0.0016787380445748568,-0.002431137952953577
1772457082664656100,2.06965625,0.0010158757213503122,-0.002159172436222434,0.001798760611563921
1772457082674674000,2.079673828125,0.002939737867563963,0.0010786475613713264,-0.000817431602627039
1772457082684693000,2.08969287109375,-0.001704016118310392,-0.0004856931045651436,0.0015016490360721946
1772457082694711000,2.0997109375,-0.00145443226210773,0.001357175875455141,-0.0012050081277266145
1772457082704730000,2.109730224609375,-0.001695714658126235,0.0013648993335664272,0.0012174032162874937
1772457082714748200,2.119748046875,0.0008057971717789769,0.001991471741348505,0.00019965608953498304
1772457082724767000,2.12976708984375,-0.0014858529902994633,-0.0010093781165778637,0.001036953879520297
1772457082734785000,2.139784912109375,0.000057628494687378407,0.0015219519846141338,0.001461311592720449
1772457082744803600,2.149803466796875,0.0029703276231884956,-0.0012101847678422928,0.000684733793605119
1772457082754821600,2.159821533203125,-0.00020340248011052608,0.001290059182792902,-0.00043844495667144656
1772457082764840700,2.1698408203125,0.0009665241814218462,0.0005481024272739887,-0.00031407532515004277
1772457082774858500,2.1798583984375,0.0015792726771906018,0.0002514924854040146,-0.002613838529214263
1772457082784877600,2.189877685546875,-0.0004410012625157833,0.00038438430055975914,0.000738282164093107
1772457082794895600,2.1998955078125,0.00011174159590154886,-0.0003285766579210758,0.002427056897431612
1772457082804914400,2.20991455078125,0.0006800601840950549,-0.000823658425360918,0.000394798640627414
1772457082814932500,2.219932373046875,-0.00019510393030941486,0.0009947321377694607,-0.0022257789969444275
1772457082824951600,2.22995166015625,0.0009282173705287278,-0.0005160793662071228,0.000661620288155973
1772457082834969600,2.239969482421875,0.0005924768629483879,-0.002809111960232258,0.0010835027787834406
1772457082844988700,2.24998876953125,0.0002942028222605586,-0.0015952433459460735,0.0007721791625954211
1772457082855006500,2.26000634765625,0.00026108475867658854,-0.00045498646795749664,0.0016697399551048875
1772457082865025500,2.270025634765625,-0.00009391468483954668,0.0008635446429252625,0.0014976997626945376
1772457082875043600,2.280043701171875,-0.002088425448164344,0.000767955556511879,-0.0026922223623842
1772457082885062400,2.2900625,0.000016270787455141544,-0.005701661575585604,0.03279093652963638
1772457082895080400,2.30008056640625,-0.0009001705329865217,-0.0007471325807273388,0.021171776577830315
1772457082905099500,2.310099609375,-0.0022210984025150537,-0.003657435066998005,-0.02170298621058464
1772457082915117600,2.32011767578125,-0.0006539631867781281,-0.0014529493637382984,-0.01723756082355976
1772457082925136600,2.33013671875,-0.0015647640684619546,-0.00012776069343090057,0.008010538294911385
1772457082935154700,2.34015478515625,0.00039193930570036173,-0.0016205371357500553,-0.007645206525921822
1772457082945173500,2.350173583984375,0.0008705093059688807,0.00006417836993932724,-0.017392374575138092
1772457082955191600,2.360191650390625,0.0013839362654834986,-0.0008430618327111006,0.005627808161079884
1772457082965210600,2.370210693359375,0.0011879276717081666,-0.0016641141846776009,0.011448679491877556
1772457082975228700,2.380228759765625,-0.001957098487764597,0.0020351004786789417,-0.007488241419196129
1772457082985247500,2.39024755859375,-0.0009956971043720841,-0.000040833838284015656,-0.010991363786160946
1772457082995265500,2.400265625,-0.0003262395039200783,0.0005240156315267086,0.003047745442017913
1772457083005284600,2.41028466796875,0.0004892204888164997,0.00026675453409552574,0.004457889124751091
1772457083015302700,2.420302734375,0.0005979457055218518,-0.001479635713621974,-0.006291559431701899
1772457083025321500,2.430321533203125,-0.0024441832210868597,0.001567286904901266,-0.004836940672248602
1772457083035339500,2.440339599609375,0.0008144451421685517,-0.00118922907859087,0.0022629902232438326
1772457083045358600,2.450358642578125,0.0007657093228772283,-0.000630231574177742,0.0017905456479638815
1772457083055376600,2.460376708984375,0.0006471879314631224,0.0010540070943534374,-0.0015991257969290018
1772457083065395700,2.470395751953125,-0.0009302024263888597,-0.003057114314287901,0.000011021344107575715
1772457083075413500,2.48041357421875,0.0003881599986925721,-0.0012581951450556517,0.004110728856176138
1772457083085431600,2.490431640625,0.0003175862366333604,-0.0016989482101053,0.001530392444692552
1772457083095450600,2.50045068359375,0.000030251452699303627,-0.0001344592310488224,-0.0018939001020044088
1772457083105468400,2.510468505859375,-0.0011561868013814092,0.0005587614141404629,-0.002152226632460952
1772457083115487500,2.520487548828125,-0.0018934919498860836,-0.00022478541359305382,-0.000763028278015554
1772457083125505500,2.530505615234375,0.002187802456319332,-0.00102959293872118,0.0020186433102935553
1772457083135524600,2.540524658203125,-0.0024341342505067587,-0.0010482666548341513,-0.0016761396545916796
1772457083145542700,2.550542724609375,0.0011480835964903235,0.0004018247127532959,0.0011356257600709796
1772457083155561500,2.5605615234375,0.0008003273396752775,0.0005870293825864792,-0.00020515207143034786
1772457083165579500,2.57057958984375,0.001450138632208109,0.0021516364067792892,0.001580497482791543
1772457083175598600,2.5805986328125,0.00015721959061920643,-0.0012683069799095392,-0.000422075972892344
1772457083185616400,2.590616455078125,-0.0007668973412364721,0.0007104217074811459,-0.002433295361697674
1772457083195635500,2.600635498046875,-0.00017864583060145378,0.0012051784433424473,-0.0007199975661933422
1772457083205653800,2.61065380859375,0.000820039538666606,0.00036175549030303955,0.00031650473829358816
1772457083215672600,2.620672607421875,-0.00011179386638104916,-0.000017424114048480988,-0.0009644192177802324
1772457083225690600,2.630690673828125,0.0008749072439968586,0.0012414520606398582,0.0015418815892189741
1772457083235709700,2.640709716796875,0.0004798717563971877,-0.00041391048580408096,-0.0005784523673355579
1772457083245727500,2.6507275390625,0.0006588361575268209,0.0015075602568686008,-0.00012385081208776683
1772457083255746600,2.66074658203125,0.00007048423867672682,-0.0010524452663958073,-0.001319790375418961
1772457083265764400,2.670764404296875,0.0016380208544433117,-0.0005834626499563456,0.0015809247270226479
1772457083275783400,2.680783447265625,0.00031445047352463007,-0.0015949602238833904,0.0018228074768558145
1772457083285801700,2.6908017578125,0.003642602823674679,-0.0019954994786530733,0.00007790430390741676
1772457083295820500,2.700820556640625,0.001759020029567182,-0.002443514531478286,0.001208730973303318
1772457083305838600,2.710838623046875,-0.00019840337336063385,-0.0012853057123720646,-0.00007784210902173072
1772457083315857700,2.720857666015625,0.0003772028721868992,-0.0010371208190917969,0.00013054879673290998
1772457083325875500,2.73087548828125,0.0019340869039297104,-0.0011071620974689722,0.0005555893294513226
1772457083335894500,2.74089453125,0.0002164999023079872,0.0013409340754151344,0.0034053814597427845
1772457083345912600,2.75091259765625,0.0014071991899982095,0.001992342993617058,-0.0005962842842563987
1772457083355931600,2.760931640625,0.001647660043090582,0.0005443263798952103,0.00016323040472343564
1772457083365949700,2.77094970703125,-0.002019512699916959,-0.0017268171068280935,-0.0002431679895380512
1772457083375968500,2.780968505859375,-0.00044713926035910845,-0.0001719081774353981,0.0016603546682745218
1772457083385986600,2.790986572265625,0.0009619391639716923,0.0013266527093946934,0.0007090735016390681
1772457083396005600,2.801005615234375,0.0008130194619297981,-0.0013492857106029987,0.0016064161900430918
1772457083406023400,2.8110234375,0.001895860768854618,0.0012619439512491226,0.0003877537092193961
1772457083416042500,2.82104248046875,0.00010149786248803139,-0.000894616823643446,-0.0011086576851084828
1772457083426060800,2.831060791015625,0.00004983250983059406,0.0018367208540439606,0.00037019565934315324
1772457083436079600,2.84107958984375,-0.0007362556643784046,0.0007672691717743874,0.001110516837798059
1772457083446097700,2.85109765625,0.0010403390042483807,-0.0010628551244735718,-0.0011499742977321148
1772457083456116700,2.86111669921875,-0.0003728813026100397,0.0002710302360355854,-0.0009686803678050637
1772457083466134500,2.871134521484375,-0.0004972509341314435,0.0005136439576745033,-0.0031822999007999897
1772457083476152600,2.881152587890625,0.0016052569262683392,-0.0004569259472191334,0.002834969898685813
1772457083486171400,2.89117138671875,0.00033013534266501665,0.0002413550391793251,-0.0002343230735277757
1772457083496190500,2.9011904296875,-0.00037277722731232643,-0.0001090080477297306,-0.0013344748876988888
1772457083506208800,2.911208740234375,0.0008922242559492588,0.002344029489904642,-0.0009073039400391281
1772457083516226600,2.9212265625,0.0003909013466909528,-0.0008747077081352472,-0.000207035118364729
1772457083526245600,2.93124560546875,-0.000003512832336127758,0.00020813336595892906,-0.0010664372239261866
1772457083536263400,2.941263427734375,0.0005994085222482681,-0.0025060828775167465,-0.0021876655519008636
1772457083546282500,2.951282470703125,0.002622612053528428,0.0011078263632953167,0.00046564172953367233
1772457083556300500,2.961300537109375,0.0007306593470275402,-0.0008046051952987909,-0.00016311176295857877
1772457083566319400,2.9713193359375,-0.0010115806944668293,0.000703809317201376,-0.0023897807113826275
1772457083576337700,2.981337646484375,-0.002705902326852083,-0.0006619268096983433,-0.001410238677635789
1772457083586356700,2.991356689453125,-0.0016590136801823974,-0.0038364147767424583,-0.0008973137591965497
1772457083596374500,3.00137451171875,-0.0003030964871868491,-0.0010930628050118685,-0.0007628198945894837
1772457083606393600,3.0113935546875,-0.0020448036957532167,0.0018041902221739292,-0.0012488467618823051
1772457083616411400,3.021411376953125,-0.0005988219054415822,-0.0003509107045829296,0.0022725253365933895
1772457083626430500,3.031430419921875,-0.0007428989047184587,-0.002647620625793934,0.0004112421884201467
1772457083636448500,3.041448486328125,0.0016277176328003407,0.00030049122869968414,-0.0001170625037048012
1772457083646467300,3.05146728515625,-0.00038030592259019613,0.001105564646422863,0.0013918845215812325
1772457083656485600,3.061485595703125,-0.00006984872743487358,0.00012448523193597794,-0.0001434501027688384
1772457083666504700,3.071504638671875,0.0016566786216571927,-0.001384195638820529,-0.0005719527252949774
1772457083676522500,3.0815224609375,-0.00028583419043570757,-0.000278593972325325,0.0004273784870747477
1772457083686541600,3.09154150390625,0.00016450625844299793,0.0013909419067203999,0.0007546810084022582
1772457083696559600,3.1015595703125,-0.002480442402884364,-0.00027696462348103523,0.00019079887715633959
1772457083706578400,3.111578369140625,-0.0026551454793661833,-0.0006016038823872805,0.00024352947366423905
1772457083716596500,3.121596435546875,-0.0010737557895481586,-0.00016075978055596352,-0.0007438886677846313
1772457083726615600,3.131615478515625,-0.0022119907662272453,-0.002110459841787815,0.0014058150118216872
1772457083736633600,3.141633544921875,-0.0004323854809626937,-0.0011150215286761522,0.0013207686133682728
1772457083746652400,3.15165234375,-0.004276125691831112,0.0011505293659865856,-0.0016462591011077166
1772457083756670500,3.16167041015625,-0.0014134314842522144,-0.0005697701126337051,-0.00047870088019408286
1772457083766689500,3.171689453125,-0.003968202043324709,-0.0008802947122603655,-0.0010938911000266671
1772457083776707300,3.181707275390625,-0.0009053887333720922,0.00023399293422698975,-0.000610735674854368
1772457083786726400,3.191726318359375,-0.0005509217735379934,-0.0004954468458890915,0.00008355043246410787
1772457083796744400,3.201744384765625,0.0009295723866671324,-0.0002307598479092121,0.0018668572884052992
1772457083806763500,3.211763427734375,0.0015351752517744899,-0.00004087667912244797,-0.0012373232748359442
1772457083816781600,3.221781494140625,-0.0003324742428958416,-0.00006680935621261597,0.00031032448168843985
1772457083826800400,3.23180029296875,0.0010164168197661638,0.0022216448560357094,0.0015612111892551184
1772457083836818400,3.241818359375,-0.0011015369091182947,-0.0008871210739016533,0.00008430144225712866
1772457083846836200,3.251836181640625,-0.0018530809320509434,0.000034599099308252335,-0.0008456744253635406
1772457083856855300,3.261855224609375,-0.00018061697483062744,0.0003187675029039383,-0.0031754656229168177
1772457083866873600,3.27187353515625,0.0009536233264952898,0.0018807114101946354,-0.00009472091915085912
1772457083876892400,3.281892333984375,0.0005931354244239628,-0.0006960397586226463,-0.000015760597307235003
1772457083886910500,3.291910400390625,-0.0012231403961777687,0.0021985499188303947,-0.0031606873963028193
1772457083896929500,3.301929443359375,-0.0005407154094427824,0.0012230086140334606,-0.0029340083710849285
1772457083906947300,3.311947265625,-0.001613969448953867,0.0012003714218735695,0.0004327597562223673
1772457083916966400,3.32196630859375,-0.0018194743897765875,0.002286979928612709,0.001858212985098362
1772457083926984400,3.331984375,-0.0004649907350540161,-0.0006518184673041105,-0.0010683346772566438
1772457083937003300,3.342003173828125,0.0009600467747077346,-0.00005933642387390137,0.00020675588166341186
1772457083947021600,3.352021484375,-0.0020011221058666706,-0.0005080790724605322,0.0005961100105196238
1772457083957040600,3.36204052734375,0.00059424655046314,-0.0014062148984521627,0.00170925073325634
1772457083967058400,3.372058349609375,0.0012485852930694818,0.0008904952555894852,-0.0004543013346847147
1772457083977077500,3.382077392578125,0.0001821191981434822,-0.0014928961172699928,0.00002716158633120358
1772457083987095300,3.39209521484375,0.0010220801923424006,0.0013819863088428974,0.0006439497228711843
1772457083997114400,3.4021142578125,0.0004425665829330683,-0.000026016030460596085,0.0005754469893872738
1772457084007132400,3.41213232421875,-0.0007590516470372677,0.0013961121439933777,0.0000446789781562984
1772457084017151200,3.422151123046875,-0.0012960034655407071,-0.0002439301460981369,0.0003390611382201314
1772457084027169500,3.43216943359375,-0.001061112736351788,-0.00014033308252692223,-0.000795445404946804
1772457084037188600,3.442188720703125,0.00045342533849179745,-0.00015556300058960915,-0.0022264672443270683
1772457084047206400,3.452206298828125,-0.0016051981365308166,-0.0015095144044607878,0.0007472183788195252
1772457084057225500,3.4622255859375,0.0003500648308545351,-0.000606640474870801,-0.0011657695285975933
1772457084067243300,3.4722431640625,-0.00016499054618179798,-0.0003437865525484085,-0.0004073012387380004
1772457084077262300,3.482262451171875,0.0000418549170717597,0.0014994088560342789,-0.0020164980087429285
1772457084087280400,3.4922802734375,-0.0009696135530248284,0.0012826272286474705,0.0014040661044418812
1772457084097299500,3.502299560546875,-0.00047061056829988956,-0.0033431975170969963,-0.0010033680591732264
1772457084107317500,3.5123173828125,0.00026788399554789066,-0.00140228564850986,-0.0007580909295938909
1772457084117336600,3.522336669921875,0.0002483861753717065,0.0006915582343935966,-0.001273200730793178
1772457084127354400,3.532354248046875,-0.00024403224233537912,0.0005149906501173973,-0.0004233859945088625
1772457084137372400,3.542372314453125,0.00047082826495170593,-0.00030637066811323166,0.00012080351007170975
1772457084147391200,3.55239111328125,-0.00020454940386116505,-0.001712519908323884,-0.001084543182514608
1772457084157409500,3.562409423828125,-0.00011488189920783043,-0.00030085397884249687,-0.0010103699751198292
1772457084167428600,3.5724287109375,-0.0007021088385954499,-0.002166398335248232,-0.00039890827611088753
1772457084177446400,3.5824462890625,0.0012198850745335221,0.0012658126652240753,0.0019658003002405167
1772457084187465500,3.592465576171875,0.0014547758037224412,0.00040880730375647545,-0.004014328122138977
1772457084197483500,3.6024833984375,-0.0010022411588579416,-0.00019379379227757454,-0.0005502512212842703
1772457084207502300,3.61250244140625,-0.0004195414949208498,0.0006080842576920986,-0.0031244626734405756
1772457084217520400,3.622520263671875,0.0002725503873080015,0.0010293694213032722,-0.0003921788011211902
1772457084227539500,3.63253955078125,-0.0009032352827489376,-0.0004928931593894958,0.0015234329039230943
1772457084237557500,3.6425576171875,-0.0017755996668711305,-0.0002147895283997059,0.0018537940923124552
1772457084247576600,3.65257666015625,-0.002203569747507572,-0.0010470272973179817,0.0009019803255796432
1772457084257594400,3.662594482421875,0.0029134228825569153,-0.0005846142303198576,0.000328134949086234
1772457084267613400,3.672613525390625,0.000737353868316859,0.00011925958096981049,-0.00042820279486477375
1772457084277631500,3.682631591796875,-0.000719466945156455,0.001672038808465004,-0.0013119557406753302
1772457084287650300,3.692650390625,0.0029397164471447468,0.0012829508632421494,0.001339487498626113
1772457084297668400,3.70266845703125,0.0013074853923171759,-0.0016498493496328592,0.0016098007326945662
1772457084307687400,3.7126875,-0.00012822472490370274,-0.0003896416164934635,0.0009288304718211293
1772457084317705500,3.72270556640625,0.00023119209799915552,0.000843945425003767,-0.0006184316007420421
1772457084327724500,3.732724609375,0.0007092294981703162,0.00028334977105259895,-0.0031998336780816317
1772457084337742300,3.742742431640625,0.0015235324390232563,0.0021134535782039165,-0.0006626741378568113
1772457084347761400,3.752761474609375,-0.00008102215360850096,0.000662563368678093,-0.0003651990555226803
1772457084357779500,3.762779541015625,0.002864725887775421,-0.0008031574543565512,-0.0004334927652962506
1772457084367798300,3.77279833984375,0.002866589929908514,-0.001278798095881939,-0.0009549396927468479
1772457084377816300,3.78281640625,-0.0006662410451099277,-0.0007014414295554161,-0.0011019555386155844
1772457084387835400,3.79283544921875,0.0004219264956191182,-0.0005214116536080837,0.0002445387071929872
1772457084397853400,3.802853515625,-0.0007724232273176312,-0.00060289166867733,0.0017597905825823545
1772457084407872500,3.81287255859375,0.00014370412100106478,-0.0005219315644353628,0.00006815066444687545
1772457084417890600,3.822890625,0.0002243859926238656,-0.00007117306813597679,-0.0020986227318644524
1772457084427908400,3.832908447265625,0.00027631770353764296,-0.0005859620869159698,0.0001219209807459265
1772457084437927400,3.842927490234375,0.0001102549722418189,-0.001916615292429924,0.0010142091196030378
1772457084447945500,3.852945556640625,0.0011448930017650127,-0.0009906343184411526,-0.0012697178171947598
1772457084457964500,3.862964599609375,0.002649649977684021,0.0015362692065536976,-0.0005421933601610363
1772457084467982600,3.872982666015625,-0.0003541293554008007,-0.0001375279389321804,0.0011859319638460875
1772457084478001400,3.88300146484375,-0.000037039280869066715,0.0016342638991773129,-0.0008407298009842634
1772457084488019500,3.89301953125,0.00029558956157416105,0.00011200085282325745,0.0005036338698118925
1772457084498038500,3.90303857421875,0.001223390456289053,-0.001682013738900423,0.0005283592035993934
1772457084508056300,3.913056396484375,-0.00022643455304205418,0.0010519875213503838,-0.0016533024609088898
1772457084518075400,3.923075439453125,-0.0003361981362104416,-0.0014891242608428001,0.0014327391982078552
1772457084528093400,3.933093505859375,-0.001140739070251584,-0.0006670062430202961,-0.0012296229833737016
1772457084538112500,3.943112548828125,0.0003786180168390274,0.001016960944980383,0.0014610296348109841
1772457084548130600,3.953130615234375,0.0006840825080871582,0.0014084456488490105,0.0003872431698255241
1772457084558149400,3.9631494140625,0.0005543649895116687,0.0018982351757586002,-0.0038023900706321
1772457084568167400,3.97316748046875,-0.001971909776329994,-0.0006227130070328712,0.0007324406178668141
1772457084578186500,3.9831865234375,-0.0003979962784796953,-0.0005352250300347805,-0.0011680509196594357
1772457084588204300,3.993204345703125,0.0006222607335075736,0.000659202691167593,0.0021537099964916706
1772457084598223400,4.003223388671875,-0.0011110855266451836,-0.00009486870840191841,0.00013144219701644033
1772457084608241400,4.013241455078125,-0.00041147321462631226,0.0019400524906814098,-0.0017141284188255668
1772457084618260500,4.023260498046875,-0.001518883858807385,0.00018718978390097618,0.0008738160831853747
1772457084628278500,4.033278564453125,0.0003221594961360097,-0.0011585056781768799,-0.000016744976164773107
1772457084638297300,4.04329736328125,0.0006495148409157991,-0.00036032218486070633,-0.003783281659707427
1772457084648315400,4.0533154296875,0.0022114587482064962,-0.000962462741881609,0.00007750283111818135
1772457084658334500,4.06333447265625,-0.0018567753722891212,-0.0015941103920340538,0.000005354435415938497
1772457084668352300,4.073352294921875,-0.00052599364425987,0.000345736276358366,-0.00015763100236654282
1772457084678370600,4.08337060546875,0.00038614904042333364,-0.002633107593283057,-0.00030780088854953647
1772457084688389600,4.0933896484375,0.00016350881196558475,-0.0012746290303766727,-0.0007770498632453382
1772457084698407400,4.103407470703125,-0.0011473241029307246,-0.0011241401080042124,-0.001491644186899066
1772457084708426500,4.113426513671875,-0.00013372511602938175,-0.0006325207650661469,0.0007470090640708804
1772457084718444300,4.1234443359375,-0.000632336363196373,-0.0005156705155968666,0.0003251745365560055
1772457084728463400,4.13346337890625,-0.0027823064010590315,0.0005557192489504814,-0.0015153361018747091
1772457084738481400,4.1434814453125,-0.0003181374631822109,0.0008069290779531002,-0.00010941422078758478
1772457084748500500,4.15350048828125,0.0010813536355271935,-0.0011257268488407135,0.003992386627942324
1772457084758518500,4.1635185546875,0.002034615259617567,0.001352221705019474,0.002129143802449107
1772457084768537600,4.17353759765625,-0.0008879377273842692,-0.0011130664497613907,-0.0020264526829123497
1772457084778555400,4.183555419921875,0.0017387254629284143,0.0010691224597394466,0.00027619997854344547
1772457084788574500,4.193574462890625,0.00016026990488171577,-0.0008496851660311222,0.0008722153725102544
1772457084798592500,4.203592529296875,-0.0000036050332710146904,-0.0016761128790676594,0.0008665269706398249
1772457084808611300,4.213611328125,0.0015687252162024379,-0.0013112598098814487,0.000718188937753439
1772457084818629400,4.22362939453125,0.0002300989581272006,-0.0015546672511845827,0.002656318712979555
1772457084828648400,4.2336484375,-0.0003291649045422673,0.0019308780319988728,-0.00021536782151088119
1772457084838666500,4.24366650390625,-0.004086062777787447,0.0011607878841459751,-0.0005015647038817406
1772457084848685600,4.253685546875,-0.0005800110520794988,-0.002539407927542925,-0.0003226002736482769
1772457084858703400,4.263703369140625,0.0007383899646811187,0.0014211502857506275,-0.0009580398909747601
1772457084868722400,4.273722412109375,0.00021960621234029531,-0.0003455905243754387,-0.0023085291031748056
1772457084878740500,4.283740478515625,-0.0000598483020439744,-0.00042318878695368767,-0.000987019157037139
1772457084888759300,4.29375927734375,0.0008357727201655507,-0.00010840315371751785,-0.002499162219464779
1772457084898777600,4.303777587890625,0.0015631045680493116,0.0017063328996300697,-0.000513704726472497
1772457084908795600,4.313795654296875,0.0008863953407853842,0.0005366727709770203,0.0015638271579518914
1772457084918814500,4.323814453125,0.0011770231649279594,-0.0016912189312279224,0.0016817201394587755
1772457084928832500,4.33383251953125,0.0006606362294405699,-0.003121070098131895,0.0005778399645350873
1772457084938851600,4.3438515625,0.00285221915692091,-0.0010533344466239214,-0.00014206621563062072
1772457084948869400,4.353869384765625,0.0007299461867660284,0.001942189410328865,0.0005660683382302523
1772457084958888400,4.363888427734375,0.0008223909535445273,-0.0006419497076421976,-0.0006820179987698793
1772457084968906500,4.373906494140625,-0.00014380388893187046,-0.0012579387985169888,-0.00005857195355929434
1772457084978925600,4.383925537109375,0.0013983288081362844,0.0007892255671322346,0.00046136294258758426
1772457084988943600,4.393943603515625,0.003036705544218421,0.0008265096694231033,0.0007615012000314891
1772457084998962400,4.40396240234375,-0.0025088037364184856,0.0008669868111610413,0.0019761743023991585
1772457085008980500,4.41398046875,-0.0005870666354894638,0.0023820591159164906,0.000627016881480813
1772457085018999600,4.42399951171875,0.0004607635783031583,0.00029687443748116493,0.0008784061064943671
1772457085029017300,4.434017333984375,0.0003539707977324724,-0.0009484195616096258,0.0011689569801092148
1772457085039036400,4.444036376953125,-0.0013562204549089074,0.0008692480623722076,-0.0018572411499917507
1772457085049054500,4.454054443359375,0.0013058753684163094,0.002149429637938738,-0.0006220670766197145
1772457085059073500,4.464073486328125,-0.0014255979331210256,-0.00005024764686822891,-0.0010385171044617891
1772457085069091600,4.474091552734375,0.0014564750017598271,-0.0011450732126832008,-0.0005511587369255722
1772457085079110400,4.4841103515625,0.0011798935011029243,-0.0005471361801028252,0.0006557275773957372
1772457085089128400,4.49412841796875,-0.000030513154342770576,0.0011668740771710873,0.0006735707866027951
1772457085099147500,4.5041474609375,-0.0014634025283157825,-0.001149868592619896,-0.0017478311201557517
1772457085109165300,4.514165283203125,-0.0006577963940799236,-0.00003986293449997902,0.0002977430121973157
1772457085119183600,4.52418359375,0.0005870661116205156,-0.001530137611553073,0.00016612649778835475
1772457085129202400,4.534202392578125,0.00037135009188205004,0.00012102210894227028,-0.0005502637941390276
1772457085139220500,4.544220458984375,0.0020746677182614803,-0.00016486598178744316,-0.001012383378110826
1772457085149239600,4.554239501953125,-0.0021235395688563585,-0.0010551605373620987,-0.000427553168265149
1772457085159257300,4.56425732421875,-0.0008341285865753889,-0.00009871413931250572,-0.00007818854646757245
1772457085169276400,4.5742763671875,0.00019278633408248425,-0.0022771796211600304,0.00009971059625968337
1772457085179294500,4.58429443359375,0.0013870442053303123,0.0002383105456829071,0.0007979610236361623
1772457085189313500,4.5943134765625,0.0016469687689095736,0.0013009118847548962,-0.0009589262772351503
1772457085199331600,4.60433154296875,0.00022726459428668022,0.0001859511248767376,-0.00028751837089657784
1772457085209350700,4.6143505859375,0.0008704179781489074,-0.002583736088126898,0.0007130312733352184
1772457085219368400,4.624368408203125,-0.002282553818076849,-0.0005754446610808372,-0.0016870495164766908
1772457085229387500,4.634387451171875,0.0007262856815941632,-0.000002332497388124466,0.000587822578381747
1772457085239405300,4.6444052734375,0.0021453085355460644,-0.0016843706835061312,-0.0026888714637607336
1772457085249424400,4.65442431640625,-0.00022543745581060648,0.0010637450031936169,-0.0007913691224530339
1772457085259442700,4.664442626953125,-0.0014105031732469797,-0.0004395456053316593,-0.00010981396189890802
1772457085269461500,4.67446142578125,0.002022844273597002,-0.0017098735552281141,0.0031722658313810825
1772457085279479600,4.6844794921875,-0.0008084578439593315,0.0006669396534562111,-0.0008619630243629217
1772457085289498600,4.69449853515625,-0.0006521302275359631,0.0018765474669635296,-0.000869153649546206
1772457085299516400,4.704516357421875,0.0029305333737283945,-0.002221764763817191,-0.0005782773368991911
1772457085309534500,4.714534423828125,0.0000742932315915823,0.0025120042264461517,-0.0006456553819589317
1772457085319553300,4.72455322265625,-0.00017345952801406384,-0.0023959530517458916,-0.00020739328465424478
1772457085329571600,4.734571533203125,-0.00046587467659264803,-0.002513398416340351,-0.00104841950815171
1772457085339590700,4.744590576171875,-0.00017455511260777712,0.0012760343961417675,-0.0012256769696250558
1772457085349608400,4.7546083984375,-0.0011873552575707436,0.0007777572609484196,-0.0004182065313216299
1772457085359627500,4.76462744140625,-0.0017510371981188655,-0.00010174978524446487,-0.00016299154958687723
1772457085369645600,4.7746455078125,0.001777917379513383,-0.0016173545736819506,-0.0007630017353221774
1772457085379664400,4.784664306640625,0.0000932647380977869,0.0010283305309712887,-0.00154974777251482
1772457085389682400,4.794682373046875,-0.0006446971092373133,0.0005369773134589195,-0.0014352318830788136
1772457085399701500,4.804701416015625,-0.0003896441776305437,0.00018314924091100693,-0.001178030390292406
1772457085409719600,4.814719482421875,-0.001273813657462597,0.0015203221701085567,-0.00015111544053070247
1772457085419738600,4.824738525390625,0.0002134764799848199,-0.0015097095165401697,0.00019526283722370863
1772457085429756400,4.83475634765625,-0.00030397565569728613,-0.0005059640388935804,-0.00041673160740174353
1772457085439775500,4.844775390625,-0.001991619123145938,0.0009726677089929581,-0.0008299704641103745
1772457085449793500,4.85479345703125,0.0003865837352350354,0.0006339135579764843,0.0005050721811130643
1772457085459812400,4.864812255859375,-0.0008648557122796774,0.0007679443806409836,0.0026886460836976767
1772457085469830400,4.874830322265625,-0.0015285154804587364,0.0006478358991444111,-0.0015564326895400882
1772457085479849500,4.884849365234375,-0.0006965803913772106,0.0003420882858335972,0.000873721088282764
1772457085489867500,4.894867431640625,0.0009101046016439795,-0.001725856214761734,-0.0003145814116578549
1772457085499886600,4.904886474609375,-0.0003489224473014474,0.0014988319016993046,0.0022876528091728687
1772457085509904400,4.914904296875,0.002722767647355795,0.000827182549983263,-0.0003203808737453073
1772457085519923500,4.92492333984375,0.001324877724982798,0.0009245206601917744,0.003203549887984991
1772457085529941500,4.93494140625,-0.0005859403172507882,-0.0021548925433307886,0.0012229571584612131
1772457085539959600,4.94495947265625,-0.00038117519579827785,0.0007680519483983517,-0.0002739403862506151
1772457085549978400,4.954978271484375,-0.0016533671878278255,-0.000485497759655118,-0.0016483977669849992
1772457085559996400,4.964996337890625,-0.0009285648120567203,-0.000831670593470335,0.001623723772354424
1772457085570015500,4.975015380859375,-0.0021568145602941513,0.0009984537027776241,0.001379511901177466
1772457085580033500,4.985033447265625,-0.0010501074139028788,-0.000016903970390558243,0.0005333525477908552
1772457085590052400,4.99505224609375,-0.0029369571711868048,-0.0013668602332472801,0.002684654202312231
1772457085600070400,5.0050703125,-0.00007420172914862633,-0.00017351657152175903,-0.000656312913633883
1772457085610089500,5.01508935546875,-0.00004277646075934172,0.000031280796974897385,-0.0001694871170911938
1772457085620107500,5.025107421875,-0.000027940724976360798,-0.0007114422041922808,-0.0015183918876573443
1772457085630126600,5.035126708984375,-0.0010066524846479297,-0.0005987903568893671,-0.00015831555356271565
1772457085640144600,5.04514453125,0.0009115161374211311,-0.0007275582756847143,-0.0012015928514301777
1772457085650163500,5.05516357421875,-0.000523395137861371,-0.0005965307354927063,0.0008674169657751918
1772457085660181500,5.065181396484375,0.000784476927947253,0.0013560759834945202,-0.00045139220310375094
1772457085670200600,5.07520068359375,-0.0016951923025771976,0.0015677972696721554,-0.0015249124262481928
1772457085680218400,5.08521826171875,0.001469423878006637,0.00032467814162373543,-0.0022452883422374725
1772457085690237400,5.095237548828125,-0.0007798820734024048,-0.001681214664131403,0.000013604993000626564
1772457085700255500,5.10525537109375,0.000052308314479887486,-0.0015087132342159748,0.0010736023541539907
1772457085710274600,5.115274658203125,0.0010898758191615343,0.0001397836022078991,0.0011588234920054674
1772457085720292600,5.125292724609375,-0.001194220152683556,0.0013262592256069183,-0.0008515906520187855
1772457085730310400,5.135310302734375,-0.000023494474589824677,0.0013374448753893375,0.0019063788931816816
1772457085740329500,5.14532958984375,-0.000519123044796288,-0.00009618885815143585,-0.00007843086495995522
1772457085750347800,5.15534765625,-0.00021685415413230658,-0.0014006048440933228,-0.0007633959176018834
1772457085760366800,5.165366943359375,-0.0004435884766280651,0.0014403518289327621,-0.00198573200032115
1772457085770385200,5.17538525390625,-0.001094464911147952,0.00011329865083098412,0.001234828494489193
1772457085780404000,5.185404052734375,-0.0010679545812308788,-0.0013544855173677206,0.00021340198873076588
1772457085790422000,5.195422119140625,0.0019733752124011517,-0.0021015021484345198,-0.0016484139487147331
1772457085800441000,5.205441162109375,-0.00047308625653386116,0.0010506808757781982,0.00006045267218723893
1772457085810459000,5.215458984375,0.0002566198818385601,0.0017644078470766544,-0.0023300007451325655
1772457085820478000,5.22547802734375,0.00028217886574566364,0.0002714153379201889,0.0001873081928351894
1772457085830495700,5.235495849609375,0.0007548899739049375,-0.0004417791496962309,0.001605707686394453
1772457085840514800,5.245514892578125,0.0016098805936053395,-0.0017304939683526754,-0.0006429280620068312
1772457085850533000,5.255533203125,-0.0004817661829292774,0.00005169352516531944,0.0012148930691182613
1772457085860552000,5.265552001953125,0.0007312590605579317,-0.0007625555153936148,0.0006277250358834863
1772457085870570000,5.275570068359375,0.000857226608786732,0.0012398753315210342,0.0003108088858425617
1772457085880589000,5.285589111328125,0.00029917177744209766,0.0005260459147393703,-0.0006502854521386325
1772457085890606800,5.29560693359375,0.0010456558084115386,-0.00030273012816905975,0.0015857045073062181
1772457085900626000,5.3056259765625,0.0010045254603028297,0.0003243451938033104,0.00016261862765531987
1772457085910644000,5.31564404296875,-0.0003475614357739687,-0.00016860570758581161,0.0011565103195607662
1772457085920662000,5.325662109375,-0.00029705779161304235,-0.000677657313644886,0.00030888518085703254
1772457085930681000,5.33568115234375,0.001155962934717536,0.0006121117621660233,-0.00015849957708269358
1772457085940699000,5.345698974609375,0.0005988460034132004,0.000676457304507494,-0.00034444828634150326
1772457085950718000,5.355718017578125,0.0002505044685676694,0.001242112834006548,-0.000514890649355948
1772457085960736000,5.365736083984375,0.002054221462458372,-0.00044702994637191296,0.0006089466623961926
1772457085970754800,5.3757548828125,-0.0006329080788418651,0.00034286361187696457,-0.0008717709570191801
1772457085980772900,5.38577294921875,0.0006319705862551928,0.0007057520560920238,-0.0009357163798995316
1772457085990792000,5.3957919921875,2.444721758365631e-9,0.001751841977238655,-0.0004851095727644861
1772457086000810000,5.40581005859375,-0.0008887321455404162,-0.0008193959947675467,0.002737353090196848
1772457086010829000,5.4158291015625,-0.0014365444658324122,-0.0006345727015286684,-0.0017918851226568222
1772457086020846800,5.425846923828125,0.0007581213722005486,0.001274903304874897,-0.0005514530930668116
1772457086030866000,5.435865966796875,0.00041563890408724546,0.000053577590733766556,-0.0034167480189353228
1772457086040884000,5.445884033203125,0.0007259912672452629,0.0014275629073381424,-0.0012126414803788066
1772457086050902800,5.45590283203125,0.0007185344002209604,0.00011808658018708229,0.0011850025039166212
1772457086060920800,5.4659208984375,-0.0005293807480484247,0.0004158210940659046,-0.0007927526603452861
1772457086070940000,5.47593994140625,-0.000845497939735651,-0.0012268167920410633,0.0008256502915173769
1772457086080958000,5.4859580078125,0.002074712421745062,-0.0020475497003644705,0.0010215769289061427
1772457086090977000,5.49597705078125,0.0005183609900996089,0.00004596123471856117,-0.00044795533176511526
1772457086100994800,5.505994873046875,-0.0007651374908164144,-0.00011957483366131783,0.001669056829996407
1772457086111012900,5.516012939453125,-0.0010325188050046563,-0.003542535938322544,0.00011164024181198329
1772457086121032000,5.526031982421875,-0.0019709356129169464,-0.0002653454430401325,-0.001277980743907392
1772457086131050000,5.536050048828125,0.0021013040095567703,0.00144893117249012,0.00013109776773490012
1772457086141069000,5.546069091796875,0.0003923792392015457,-0.001021091127768159,-0.0007705012103542686
1772457086151087000,5.556087158203125,-0.00021428882610052824,-0.0009449247736483812,-0.0011220384621992707
1772457086161106000,5.56610595703125,0.00017457501962780952,-0.002363544888794422,0.002825188683345914
1772457086171124000,5.5761240234375,-0.0008534052176401019,-0.0015819072723388672,0.0012757615186274052
1772457086181143000,5.58614306640625,-0.002694206777960062,0.0000066943466663360596,0.00017970640328712761
1772457086191160800,5.596160888671875,0.0003258177312090993,-0.000011148862540721893,-0.00007009808905422688
1772457086201180000,5.606179931640625,0.0007317230920307338,0.0014542508870363235,0.00044345168862491846
1772457086211198000,5.616197998046875,0.0010736729018390179,0.0005876580253243446,0.0010618376545608044
1772457086221217000,5.626217041015625,0.0004044784000143409,-0.00017614522948861122,0.0010838736779987812
1772457086231235000,5.636235107421875,0.0001512117451056838,-0.0005876037757843733,-0.000981141347438097
1772457086241254000,5.64625390625,-0.0006692996248602867,0.0011559105478227139,-0.0011081428965553641
1772457086251272000,5.65627197265625,0.0007198051898740232,-0.00041215866804122925,0.0009337026858702302
1772457086261291000,5.666291015625,-0.0009393040090799332,-0.0007603238336741924,0.0002445501449983567
1772457086271308800,5.676308837890625,0.0006838925764895976,0.0002447529695928097,0.0013159399386495352
1772457086281327000,5.6863271484375,-0.000856187311001122,0.0013607917353510857,-0.0010425711516290903
1772457086291346000,5.696345947265625,0.000530254328623414,-0.0006160729099065065,-0.00017198381829075515
1772457086301364000,5.706364013671875,-0.0006147157400846481,-0.0013326550833880901,-0.0006707814754918218
1772457086311383000,5.716383056640625,-0.0007172473706305027,-0.0005595393013209105,-0.0003765021392609924
1772457086321400800,5.72640087890625,0.0002796221524477005,-0.0001533525064587593,-0.001981474459171295
1772457086331420000,5.736419921875,-0.0017529024044051766,-0.0008234039414674044,0.0026926398277282715
1772457086341437700,5.746437744140625,-0.001096053863875568,-0.0015901199076324701,-0.00016915949527174234
1772457086351456800,5.756456787109375,-0.001768768415786326,-0.000931253656744957,-0.0016485454980283976
1772457086361475000,5.76647509765625,-0.000963307567872107,-0.0004659947007894516,0.0007776821730658412
1772457086371494100,5.776494140625,-0.0009198979241773486,-0.00006305845454335213,-0.0008079638937488198
1772457086381512000,5.786511962890625,0.0010758666321635246,0.0010993028990924358,-0.001232457347214222
1772457086391531000,5.796531005859375,-0.000627491157501936,0.0016577676869928837,0.0004445351951289922
1772457086401548800,5.806548828125,0.00008252717088907957,0.0005277553573250771,0.0011209800140932202
1772457086411567900,5.81656787109375,0.0002822643145918846,-0.000285307876765728,0.0003028569044545293
1772457086421586000,5.8265859375,0.0007160103996284306,-0.0008222139440476894,0.0015242162626236677
1772457086431604700,5.836604736328125,0.0002302498323842883,-0.0007788045331835747,0.0010648209135979414
1772457086441623000,5.846623046875,-0.000691618537530303,0.0008971435017883778,0.0016318984562531114
1772457086451642000,5.85664208984375,-0.0006024027243256569,0.0017325771041214466,-0.0013460482005029917
1772457086461660000,5.866659912109375,-0.0004520618822425604,-0.002467729151248932,0.00038533846964128315
1772457086471678000,5.876677978515625,0.0007948302663862705,-0.0011308223474770784,0.0003994532162323594
1772457086481696800,5.88669677734375,-0.0009500838350504637,-0.00006691878661513329,-0.0011295847361907363
1772457086491715000,5.896715087890625,-0.0013476936146616936,0.000413515605032444,0.002887527458369732
1772457086501734100,5.906734130859375,-0.00008929427713155746,0.0002528424374759197,-0.0026806967798620462
1772457086511752000,5.916751953125,-0.001025129109621048,-0.0007812629919499159,-0.0011112958891317248
1772457086521771000,5.92677099609375,0.00027668115217238665,-0.0008073586504906416,-0.00121412705630064
1772457086531788800,5.936788818359375,0.000173350446857512,0.0014214408583939075,0.0019651546608656645
1772457086541807900,5.946807861328125,0.0020554952789098024,-0.0003952870611101389,-0.0008052231278270483
1772457086551826000,5.956825927734375,-0.0006121932528913021,-0.0011010246817022562,-0.0007426388328894973
1772457086561844700,5.9668447265625,-0.00004471035208553076,0.00009450875222682953,0.0014155718963593245
1772457086571863000,5.976863037109375,0.0003723406698554754,-0.00461182976141572,0.0029415632598102093
1772457086581882000,5.986882080078125,-0.001864057732746005,0.0014241314493119717,-0.00046218381612561643
1772457086591900000,5.99689990234375,0.0018859393894672394,0.0001852288842201233,0.0007737892447039485
1772457086601919000,6.0069189453125,-0.0018790868343785405,-0.0012209543492645025,0.002850431716069579
1772457086611937000,6.01693701171875,0.0006730204331688583,-0.0007096275221556425,0.00010897370520979166
1772457086621954800,6.026954833984375,0.0016902335919439793,-0.0016369412187486887,0.00005297764437273145
1772457086631974000,6.036973876953125,-0.00006292539183050394,-0.000014010816812515259,0.0009427397744730115
1772457086641992000,6.046991943359375,-0.0012424750020727515,0.0014880108647048473,-0.0028410342056304216
1772457086652011000,6.057010986328125,0.00045209447853267193,-0.0002699415199458599,-0.000017817190382629633
1772457086662029000,6.067029052734375,0.0020571709610521793,0.000031999778002500534,-0.0010591556783765554
1772457086672047900,6.0770478515625,-0.0001639053225517273,-0.0008497727103531361,0.0005073156207799911
1772457086682066000,6.08706591796875,0.0008089111652225256,0.00025049829855561256,-0.00012716808123514056
1772457086692085000,6.0970849609375,-0.0004321218002587557,0.0001522274687886238,0.0014861749950796366
1772457086702102800,6.107102783203125,0.001344701973721385,-0.0013360606972128153,-0.0004784931370522827
1772457086712121900,6.117121826171875,0.001222995575517416,-0.001025802455842495,-0.0003117792366538197
1772457086722140000,6.127139892578125,0.0030430019833147526,-0.000034677330404520035,0.00040910893585532904
1772457086732159000,6.137158935546875,-0.00028994400054216385,-0.0017825099639594555,-0.001248176209628582
1772457086742177000,6.147177001953125,-0.00021559861488640308,0.000849342904984951,0.00039971712976694107
1772457086752195300,6.1571953125,0.0009015974937938154,0.0003798278048634529,-0.000021328625734895468
1772457086762213000,6.167213134765625,0.002503104042261839,-0.0010791728273034096,0.0009437133558094501
1772457086772232200,6.177232177734375,0.0005395554471760988,-0.0023923777043819427,0.0014768781838938594
1772457086782250500,6.18725048828125,0.0002646896755322814,-0.0011853375472128391,-0.0009143131319433451
1772457086792268300,6.197268310546875,0.0005461857654154301,0.0012567811645567417,0.0014676181599497795
1772457086802287400,6.207287353515625,0.00008567818440496922,-0.0013291365467011929,0.00007164946873672307
1772457086812305200,6.21730517578125,0.0002460004761815071,-0.00022126175463199615,-0.000022360094590112567
1772457086822324200,6.22732421875,0.00012720550876110792,-0.000512285390868783,-0.00006987361120991409
1772457086832342300,6.23734228515625,0.0011224288027733564,-0.000015072990208864212,-0.0004922509542666376
1772457086842361000,6.247361083984375,0.0016995205078274012,0.0005356203764677048,0.00039543642196804285
1772457086852379400,6.25737939453125,-0.0017378214979544282,-0.000420720549300313,0.0009128886158578098
1772457086862398500,6.2673984375,-0.0003703044494614005,0.0002164803445339203,0.0008052140474319458
1772457086872416300,6.277416259765625,0.000957813928835094,0.0022556628100574017,-0.00047123903641477227
1772457086882435300,6.287435302734375,0.0007595789502374828,-0.000020841136574745178,0.00048478366807103157
1772457086892453000,6.297453125,0.0010621140245348215,-0.002465622965246439,0.0017303440254181623
1772457086902472200,6.30747216796875,0.002025010995566845,-0.001254532253369689,0.0004502977535594255
1772457086912490200,6.317490234375,-0.0000061818864196538925,-0.0008947392925620079,0.003272982081398368
1772457086922509300,6.32750927734375,0.0015087483916431665,0.0004941322840750217,0.0004124654224142432
1772457086932527400,6.33752734375,-0.0020873178727924824,-0.000986318802461028,-0.0003523944178596139
1772457086942546400,6.34754638671875,0.0017060735262930393,-0.0015014209784567356,0.00031403324101120234
1772457086952564200,6.357564208984375,0.0011856917990371585,-0.0002457406371831894,0.0013707755133509636
1772457086962582300,6.367582275390625,0.00016544712707400322,-0.0011462264228612185,0.0006747171864844859
1772457086972601300,6.377601318359375,0.0005745086818933487,0.0008737812750041485,0.00009601229976397008
1772457086982619400,6.387619384765625,0.0003301567630842328,0.0015688291750848293,-0.003375970060005784
1772457086992638500,6.397638427734375,0.00047556543722748756,-0.002291156444698572,-0.0002203906187787652
1772457087002656300,6.40765625,-0.0004578073276206851,-0.0009932471439242363,-0.0004602859844453633
1772457087012675300,6.41767529296875,-0.001022930140607059,-0.0002353114541620016,-0.0002786584082059562
1772457087022693400,6.427693359375,0.0019191637402400374,-0.00031421566382050514,0.000805720454081893
1772457087032712200,6.437712158203125,-0.0010686366586014628,0.00003678910434246063,-0.0005346485413610935
1772457087042730200,6.447730224609375,-0.0005732269492000341,0.0013689622282981873,0.0014993671793490648
1772457087052749300,6.457749267578125,-0.0008355483878403902,0.00011408096179366112,0.0003299732634332031
1772457087062767400,6.467767333984375,0.0013485429808497429,0.00035817502066493034,0.0016112886369228363
1772457087072786400,6.477786376953125,-0.000024849199689924717,-0.00035688350908458233,-0.0002518589608371258
1772457087082804200,6.48780419921875,-0.0010553112952038646,0.0007106466218829155,-0.001197608420625329
1772457087092823300,6.4978232421875,0.00009464169852435589,0.0006275558844208717,-0.001173906261101365
1772457087102841300,6.50784130859375,-0.0009663284290581942,0.0004631238989531994,-0.0002882959961425513
1772457087112859100,6.517859130859375,-0.0010590064339339733,0.0007211840711534023,0.001904284581542015
1772457087122878200,6.527878173828125,0.0007665416924282908,0.0014362689107656479,0.0006862559239380062
1772457087132896500,6.537896484375,-0.00032535428181290627,-0.0002481804694980383,0.0016577771166339517
1772457087142915300,6.547915283203125,-0.0009329315507784486,0.0015748296864330769,-0.0016784839099273086
1772457087152933400,6.557933349609375,-0.0013044426450505853,-0.0016300182323902845,-0.0017501231050118804
1772457087162952400,6.567952392578125,-0.0005193785764276981,-0.00021653925068676472,0.0005107977776788175
1772457087172970200,6.57797021484375,-0.001241894206032157,-0.0015507829375565052,0.0012215954484418035
1772457087182989300,6.5879892578125,0.0012606357922777534,0.001944820862263441,-0.0005897342343814671
1772457087193007000,6.598007080078125,0.00039803795516490936,0.00041510071605443954,0.0008888527518138289
1772457087203026200,6.608026123046875,0.000011609750799834728,0.00019045034423470497,0.0014010965824127197
1772457087213044500,6.61804443359375,-0.0011287558590993285,0.0006455844268202782,-0.002425599377602339
1772457087223063300,6.628063232421875,0.0012366371229290962,-0.0024340420495718718,-0.0002265855437144637
1772457087233081300,6.638081298828125,0.001947168493643403,0.0016858680173754692,0.000041062128730118275
1772457087243100400,6.648100341796875,-0.0010601412504911423,-0.0012896524276584387,-0.002133838599547744
1772457087253118200,6.6581181640625,0.00043682160321623087,-0.0022907345555722713,-0.002386572537943721
1772457087263136500,6.668136474609375,0.0014081088593229651,-0.0021867244504392147,0.0006533071282319725
1772457087273155300,6.6781552734375,0.0009535072022117674,-0.000494551844894886,0.0008522452553734183
1772457087283173400,6.68817333984375,-0.002100701443850994,0.0026378845795989037,-0.0004947705310769379
1772457087293192400,6.6981923828125,-0.0009667273843660951,0.00008710892871022224,0.0010631787590682507
1772457087303210200,6.708210205078125,0.0008930562762543559,0.0011244313791394234,-0.0004896711325272918
1772457087313229300,6.718229248046875,0.0006019727443344891,0.0009571844711899757,-0.0010025959927588701
1772457087323248400,6.728248291015625,-0.0014150749193504453,0.0016783000901341438,0.00024181029584724456
1772457087333266200,6.73826611328125,-0.0006664603715762496,0.0020098634995520115,-0.002151306252926588
1772457087343285200,6.74828515625,0.0019014014396816492,-0.0013935260940343142,0.0004160151584073901
1772457087353303300,6.75830322265625,-0.0008214145200327039,0.00053353700786829,-0.00001195483491756022
1772457087363322400,6.768322265625,-0.0018289464060217142,-0.001225057290866971,-0.0004911273717880249
1772457087373340400,6.77834033203125,-0.00027845404110848904,0.0007494101300835609,0.00041967371362261474
1772457087383359200,6.788359130859375,0.0016509080305695534,0.0027851457707583904,-0.0020243527833372355
1772457087393377300,6.798377197265625,-0.0012743080733343959,0.0009592827409505844,0.00027262369985692203
1772457087403396400,6.808396240234375,0.000746675010304898,0.0005691018886864185,0.00122528534848243
1772457087413414100,6.8184140625,-0.0019873259589076042,-0.0013995070476084948,0.0003770685289055109
1772457087423433200,6.82843310546875,-0.000564344460144639,-0.0006576988380402327,-0.001326344907283783
1772457087433451500,6.838451416015625,-0.00044130650348961353,0.0011873389594256878,0.0003620991774369031
1772457087443470300,6.84847021484375,-0.001021888921968639,-0.00022413302212953568,0.00032858189661055803
1772457087453488400,6.85848828125,-0.001694603473879397,0.002575914841145277,-0.0005228306399658322
1772457087463506200,6.868506103515625,0.0011534050572663546,-0.0021976216230541468,-0.00009526284702587873
1772457087473525200,6.878525146484375,-0.0014327907701954246,0.0020698276348412037,-0.0015613330760970712
1772457087483543300,6.888543212890625,-0.0031721284613013268,0.000034430064260959625,-0.0012063855538144708
1772457087493562000,6.89856201171875,-0.001440807362087071,0.0005830409936606884,-0.002372849965468049
1772457087503580400,6.908580322265625,0.001823693746700883,-0.0015130266547203064,0.00035927764838561416
1772457087513599500,6.918599609375,-0.0012930036755278707,0.000492866151034832,0.0005219967570155859
1772457087523617300,6.9286171875,-0.0007389727979898453,0.0002145254984498024,-0.0008582168375141919
1772457087533636400,6.93863623046875,0.0018964913906529546,-0.0010821677278727293,-0.0012076236307621002
1772457087543654100,6.948654052734375,0.0010310440557077527,0.001707530114799738,-0.0005171962548047304
1772457087553673200,6.958673095703125,0.002198307542130351,0.002024180255830288,-0.00030654019792564213
1772457087563691300,6.968691162109375,0.0010613228660076857,-0.0004630819894373417,-0.0022522436920553446
1772457087573710000,6.9787099609375,0.0028427112847566605,0.0010088472627103329,-0.0005275804433040321
1772457087583728400,6.988728271484375,-0.0019753321539610624,0.0009004352614283562,0.00019732210785150528
1772457087593747500,6.99874755859375,-0.0010823742486536503,0.00020854640752077103,0.002666871529072523
1772457087603765200,7.00876513671875,-0.0009622641373425722,-0.0016942082438617945,0.0003540300822351128
1772457087613783300,7.018783203125,-0.0005747741088271141,-0.0003495782148092985,-0.0002987107145600021
1772457087623802400,7.02880224609375,0.0030039846897125244,0.001065803226083517,0.0006357217207551003
1772457087633820400,7.0388203125,-0.0010852990671992302,-0.0007515379693359137,-0.0011669719824567437
1772457087643839200,7.048839111328125,0.00043628166895359755,0.00006685825064778328,-0.00012193512520752847
1772457087653857300,7.058857177734375,0.0027250023558735847,-0.0007177090737968683,-0.003076978726312518
1772457087663876400,7.06887646484375,-0.000035678152926266193,-0.0009324159473180771,-0.0009712479659356177
1772457087673894400,7.078894287109375,-0.000849806354381144,0.0015802765265107155,-0.00018801222904585302
1772457087683913200,7.088913330078125,0.00213072937913239,-0.0007925606332719326,0.002930479822680354
1772457087693931300,7.09893115234375,0.00018315960187464952,0.0003608544357120991,-0.0020586862228810787
1772457087703950300,7.108950439453125,0.0016497760079801083,-0.0008857268840074539,0.0004617992672137916
1772457087713968400,7.118968505859375,0.002904923865571618,0.0014634476974606514,0.0010567494900897145
1772457087723987500,7.128987548828125,0.0015724117401987314,0.0005164723843336105,0.00024254224263131618
1772457087734005200,7.139005126953125,0.0005891725886613131,-0.0010968705173581839,0.00003002199809998274
1772457087744024300,7.1490244140625,0.0010904676746577024,0.0010966886766254902,-0.00028446628130041063
1772457087754043400,7.15904345703125,0.0009314769995398819,0.0006239772774279118,0.0017693635309115052
1772457087764061200,7.169061279296875,0.0007633333443664014,0.0022766184993088245,0.0010670647025108337
1772457087774080300,7.179080322265625,0.0003175202291458845,-0.0008712380658835173,-0.0003862223238684237
1772457087784098300,7.189098388671875,-0.0006010655779391527,-0.0003132179845124483,-0.0009869153145700693
1772457087794117000,7.1991171875,-0.0002929377369582653,0.0009903996251523495,0.0006104485946707428
1772457087804135400,7.209135498046875,0.000977897085249424,0.0008760932832956314,0.0001512057351646945
1772457087814154500,7.219154541015625,-0.0021377350203692913,-0.0009050287771970034,-0.0010133946780115366
1772457087824172300,7.22917236328125,0.0016315969405695796,0.0003097476437687874,0.0007212627097032964
1772457087834191400,7.23919140625,0.0014616872649639845,-0.00044951937161386013,0.0027452651411294937
1772457087844209200,7.249209228515625,-0.0010006050579249859,0.0019252398051321507,-0.0007263625739142299
1772457087854228200,7.259228271484375,0.0021752144675701857,-0.00004842877388000488,-0.0013029369292780757
1772457087864246300,7.269246337890625,-0.0004243070725351572,0.000228220596909523,0.00010908942203968763
1772457087874265000,7.27926513671875,-0.0005774388555437326,-0.00030893925577402115,0.000011884054401889443
1772457087884283400,7.289283447265625,0.0009208416449837387,-0.00008182227611541748,0.0005519900005310774
1772457087894302500,7.299302490234375,0.0015679898206144571,-0.00036598159931600094,0.0024446984753012657
1772457087904320300,7.3093203125,0.00012510281521826982,-0.0006776631344109774,-0.0011587312910705805
1772457087914338300,7.31933837890625,0.00133337895385921,0.0005647013895213604,0.002398186596110463
1772457087924357400,7.329357421875,0.0023335833102464676,-0.0001754756085574627,0.0005598878487944603
1772457087934375200,7.339375244140625,-0.002261434681713581,-0.0023297066800296307,-0.0008401358500123024
1772457087944394200,7.349394287109375,0.001877922797575593,-0.0017778431065380573,0.0007054091547615826
1772457087954412300,7.359412353515625,0.0003751011099666357,0.00271943723782897,-0.0011398951755836606
1772457087964431400,7.369431396484375,0.00322587788105011,-0.00009324541315436363,0.0016960840439423919
1772457087974449400,7.379449462890625,-0.001792316441424191,0.0013011856935918331,-0.001963099231943488
1772457087984468200,7.38946826171875,0.00009172118734568357,0.002499490510672331,-0.0003982037596870214
1772457087994486300,7.399486328125,0.0008451294270344079,0.00013087503612041473,0.00096107367426157
1772457088004505300,7.40950537109375,-0.000026092748157680035,-0.0006970264948904514,0.0006010101642459631
1772457088014523400,7.4195234375,0.000042883213609457016,0.00007076282054185867,-0.0007848989334888756
1772457088024542200,7.429542236328125,-0.0017076253425329924,0.0011285594664514065,0.001705324393697083
1772457088034560300,7.439560302734375,-0.0005432914476841688,-0.00008344510570168495,-0.0009834030643105507
1772457088044579300,7.449579345703125,-0.0004350910894572735,-0.0012541371397674084,-0.0023652235977351665
1772457088054597400,7.459597412109375,-0.0016779883299022913,0.001576270442456007,-0.0024099647998809814
1772457088064615200,7.469615234375,-0.0012515176786109805,0.0009825648739933968,-0.0019091932335868478
1772457088074634200,7.47963427734375,-0.0007614960195496678,0.0024299928918480873,-0.0012692356249317527
1772457088084652500,7.489652587890625,0.0015622925711795688,0.0012817410752177238,0.0005882071563974023
1772457088094671400,7.49967138671875,-0.001967993564903736,0.0012085041962563992,-0.0012387214228510857
1772457088104689400,7.509689453125,-0.001708580064587295,0.0007875668816268444,-0.0025236026849597692
1772457088114708500,7.51970849609375,0.0004938540514558554,0.0012301844544708729,-0.0011717822635546327
1772457088124726300,7.529726318359375,0.000585534842684865,-0.0001681172288954258,-0.0007645319565199316
1772457088134745300,7.539745361328125,-0.0015447278274223208,0.0004420126788318157,-0.0003591988352127373
1772457088144763100,7.54976318359375,-0.0014501595869660378,-0.0000370158813893795,-0.0007948389975354075
1772457088154782200,7.5597822265625,-0.0006240471266210079,0.0022935159504413605,-0.0015975156566128135
1772457088164800500,7.569800537109375,-0.000836015329696238,-0.0007543785031884909,0.002090341178700328
1772457088174819300,7.5798193359375,-0.001495680189691484,-0.0013959340285509825,-0.00033686382812447846
1772457088184837400,7.58983740234375,-0.000058303121477365494,-0.0002422146499156952,-0.0005070571205578744
1772457088194856400,7.5998564453125,-0.0013073257869109511,0.0025487784296274185,-0.0014295760774984956
1772457088204874200,7.609874267578125,-0.0003939778544008732,0.0015060445293784142,-0.002070212969556451
1772457088214892300,7.619892333984375,0.00022067967802286148,-0.0023251790553331375,-0.0009359727264381945
1772457088224911000,7.6299111328125,0.0017336593009531498,-0.0017678216099739075,-0.0010855193249881268
1772457088234929400,7.639929443359375,-0.001071448321454227,0.0013632569462060928,0.0007738997228443623
1772457088244948500,7.649948486328125,0.000251005869358778,0.0001232922077178955,-0.0018139254534617066
1772457088254966300,7.65996630859375,-0.0001348862424492836,0.0014205179177224636,-0.0001004476216621697
1772457088264985300,7.6699853515625,-0.003074197331443429,0.0012013916857540607,0.00019224282004870474
1772457088275003100,7.680003173828125,-0.000253377016633749,-0.0012854679953306913,-0.0011017870856449008
1772457088285022200,7.690022216796875,-0.000036412617191672325,-0.00025276094675064087,-0.00009548212983645499
1772457088295040300,7.700040283203125,0.0020744088105857372,-0.0005097559187561274,0.0007340925512835383
1772457088305059000,7.71005908203125,0.0030903141014277935,-0.0018444284796714783,0.001229681889526546
1772457088315077400,7.720077392578125,-0.001471947063691914,0.0004911636933684349,-0.00020789241534657776
1772457088325096400,7.730096435546875,0.001085594529286027,-0.0015294626355171204,-0.00022790921502746642
1772457088335114200,7.7401142578125,0.001062158728018403,0.0009297002106904984,0.0007025992963463068
1772457088345133300,7.75013330078125,0.0009338941308669746,0.00036117155104875565,-0.0011706381337717175
1772457088355151400,7.7601513671875,0.00012562470510601997,-0.0030940137803554535,0.002543939044699073
1772457088365169400,7.77016943359375,-0.0005069473991170526,-0.001038414891809225,-0.0009769427124410868
1772457088375188200,7.780188232421875,-0.0008952362695708871,-0.00011749379336833954,-0.0012525799684226513
1772457088385206300,7.790206298828125,0.0016288311453536153,0.0024587465450167656,0.001416608807630837
1772457088395225300,7.800225341796875,-0.00041940598748624325,0.0009364834986627102,0.0006264488911256194
1772457088405243400,7.810243408203125,0.0008828974096104503,-0.0023127447348088026,-0.0002756253525149077
1772457088415262200,7.82026220703125,0.0005678454181179404,0.00091500673443079,0.0008514244109392166
1772457088425280300,7.8302802734375,0.002075775060802698,-0.002466847188770771,-0.000361267855623737
1772457088435299300,7.84029931640625,-0.0019519897177815437,0.0005297418683767319,0.0005444732378236949
1772457088445317400,7.8503173828125,0.000027320929802954197,-0.0004106154665350914,-0.003108722623437643
1772457088455336400,7.86033642578125,-0.0020869625732302666,0.0007854104042053223,0.0013454142026603222
1772457088465354200,7.870354248046875,0.001756625366397202,0.0006344052962958813,-0.0015738653019070625
1772457088475373300,7.880373291015625,-0.00025299598928540945,0.00073240976780653,0.0005585277685895562
1772457088485391400,7.890391357421875,0.0016280630370602012,-0.00024233898147940636,-0.0008544862503185868
1772457088495409200,7.9004091796875,0.0006091375835239887,-0.00024420348927378654,0.0014733828138560057
1772457088505428200,7.91042822265625,-0.0007967989658936858,0.0011636321432888508,-0.0019152244785800576
1772457088515446500,7.920446533203125,-0.0003919984446838498,-0.002261991612613201,-0.0016550334403291345
1772457088525465300,7.93046533203125,-0.00013988942373543978,0.00015661027282476425,0.0016565161058679223
1772457088535483400,7.9404833984375,-0.0011532222852110863,0.0003976263105869293,-0.0011097092647105455
1772457088545502500,7.95050244140625,-0.00002586119808256626,0.001442252192646265,0.0004459653573576361
1772457088555520300,7.960520263671875,0.002723319921642542,0.00037858542054891586,-0.0004845430958084762
1772457088565539300,7.970539306640625,0.0021756275091320276,-0.0009102397598326206,0.001188220689073205
1772457088575557000,7.98055712890625,0.0026842912193387747,-0.00000796094536781311,0.0039035798981785774
1772457088585576200,7.990576171875,0.0021699497010558844,0.0010455953888595104,0.0015480429865419865
1772457088595594500,8.000594482421874,0.002031465293839574,-0.0015424645971506834,0.0019046402303501964
1772457088605613300,8.01061328125,-0.0017793918959796429,0.0011967127211391926,-0.00025800237199291587
1772457088615631400,8.02063134765625,0.000024899723939597607,-0.000920500373467803,0.00007915383321233094
1772457088625650400,8.030650390625,0.0023615092504769564,0.0012082494795322418,-0.0008440011879429221
1772457088635668200,8.040668212890624,-0.0005866100545972586,0.0013946709223091602,-0.00044798917951993644
1772457088645686300,8.050686279296874,-0.0008572499500587583,0.0006842571310698986,-0.00010736551485024393
1772457088655705000,8.060705078125,0.0006490339292213321,-0.0019059334881603718,0.0013531120494008064
1772457088665723400,8.070723388671874,-0.0003872886300086975,0.0014869472943246365,-0.00031491785193793476
1772457088675742500,8.080742431640624,0.00213951850309968,0.0014312872663140297,0.0003008049970958382
1772457088685760300,8.09076025390625,-0.0007368376245722175,-0.00024662353098392487,0.000268609233899042
1772457088695779300,8.100779296875,-0.0002281739143654704,-0.00010867184028029442,-0.0006089023081585765
1772457088705797000,8.110797119140624,0.0010172543115913868,-0.00010058004409074783,-0.0010765419574454427
1772457088715816200,8.120816162109374,-0.0011761251371353865,0.00044510187581181526,-0.0007036994211375713
1772457088725834500,8.13083447265625,-0.0019318778067827225,-0.0018836495000869036,-0.0012189438566565514
1772457088735853300,8.140853271484374,0.0009139760513789952,-0.0009486137423664331,-0.00039256500895135105
1772457088745871400,8.150871337890624,0.0001563952537253499,-0.0001787971705198288,0.002628546440973878
1772457088755889700,8.1608896484375,-0.000259324093349278,-0.0011876027565449476,-0.0023678101133555174
1772457088765907500,8.170907470703124,-0.00027917721308767796,-0.001070199767127633,0.00048807222628965974
1772457088775925800,8.18092578125,-0.0004855722654610872,0.0010134573094546795,-0.0013835973804816604
1772457088785944600,8.190944580078124,-0.0013379871379584074,-0.002627371344715357,-0.00015078202704899013
1772457088795962600,8.200962646484374,0.001251670648343861,-0.0017943347338587046,0.0017389970598742366
1772457088805981700,8.210981689453124,0.0018454897217452526,-0.0004928724374622107,0.00009801823762245476
1772457088815999500,8.22099951171875,0.0005530576454475522,-0.0006590536795556545,0.0019369309302419424
1772457088826018600,8.2310185546875,-0.0006440661381930113,-0.0012255010660737753,0.0005929047474637628
1772457088836036400,8.241036376953126,0.0016957870684564114,-0.0004143023397773504,-0.0008840843802317977
1772457088846055400,8.251055419921874,-0.0015709504950791597,-0.0011545224115252495,0.0019391527166590095
1772457088856073700,8.26107373046875,-0.0013262059073895216,-0.0003113658167421818,0.00037667612195946276
1772457088866092500,8.271092529296874,0.0007153403712436557,-0.0017461779061704874,0.000750028237234801
1772457088876110600,8.281110595703124,0.0002279819454997778,-0.0009011568035930395,-0.0012041993904858828
1772457088886129700,8.291129638671874,-0.0008652453543618321,-0.002775781322270632,-0.00025903317146003246
1772457088896147500,8.3011474609375,0.00006579584442079067,0.0013686302118003368,-0.001331488136202097
1772457088906166500,8.31116650390625,-0.0015315290074795485,-0.0012048545759171247,-0.0016717171529307961
1772457088916184600,8.3211845703125,-0.001765354536473751,0.0003826557658612728,0.0006380424019880593
1772457088926202600,8.33120263671875,-0.0001040509669110179,0.001175595447421074,-0.00016889945254661143
1772457088936221700,8.3412216796875,0.0004160644020885229,-0.00032988982275128365,0.0019539061468094587
1772457088946239500,8.351239501953126,-0.00035562063567340374,0.001422998495399952,-0.0003295881033409387
1772457088956258600,8.361258544921874,-0.0005356501787900925,-0.000955470371991396,-0.0015599685721099377
1772457088966276600,8.371276611328126,-0.000880311825312674,0.00013441266492009163,-0.0007765822811052203
1772457088976295400,8.38129541015625,-0.0008872359758242965,0.0021059508435428143,0.0005693793063983321
1772457088986313500,8.3913134765625,-0.0015899264253675938,-0.00037592044100165367,-0.0005183693137951195
1772457088996332500,8.40133251953125,-0.0004908398259431124,-0.000844903290271759,0.0009327871375717223
1772457089006350600,8.4113505859375,0.0012461044825613499,0.0011277711018919945,0.00034010372473858297
1772457089016369700,8.42136962890625,-0.0006793610518798232,-0.0014901163522154093,0.0020629025530070066
1772457089026387500,8.431387451171876,-0.0012838180409744382,-0.00034082704223692417,0.000162596013979055
1772457089036406500,8.441406494140624,-0.00014105578884482384,-0.0014926441945135593,-0.003380739828571677
1772457089046424600,8.451424560546876,0.0015084109036251903,-0.003016951261088252,-0.00014921138063073158
1772457089056442600,8.461442626953126,0.0006005392642691731,0.0009514251723885536,0.00022070170962251723
1772457089066461400,8.47146142578125,-0.000467342440970242,-0.0005345710087567568,-0.0005563608137890697
1772457089076479700,8.481479736328126,-0.000014072400517761707,-0.0001665223389863968,0.00022927169629838318
1772457089086498600,8.49149853515625,0.0017117040697485209,-0.001618123147636652,0.0006418766570277512
1772457089096516600,8.5015166015625,0.0018469926435500383,0.0003816443495452404,0.0010141865350306034
1772457089106535700,8.51153564453125,-0.0007439652690663934,0.00008385302498936653,-0.0002637770667206496
1772457089116553500,8.521553466796876,-0.00025740580167621374,-0.000010955613106489182,-0.0004478015180211514
1772457089126572500,8.531572509765626,0.0010563242249190807,-0.0009663577657192945,0.001288645900785923
1772457089136590600,8.541590576171876,-0.0017674253322184086,0.002216652501374483,-0.001350014004856348
1772457089146609700,8.551609619140624,0.0005318803014233708,0.0008419454097747803,-0.0005272685084491968
1772457089156627700,8.561627685546876,-0.0017248822841793299,0.00037749018520116806,-0.0005315296584740281
1772457089166646500,8.571646484375,0.0006776950322091579,0.00047198357060551643,-0.0024515860714018345
1772457089176664600,8.58166455078125,-0.00021952390670776367,0.0005795750766992569,-0.0010417087469249964
1772457089186683600,8.59168359375,0.00026817829348146915,0.0010874136351048946,-0.0031913777347654104
1772457089196701400,8.601701416015626,0.0006402219878509641,-0.0024066539481282234,-0.0003777480742428452
1772457089206719700,8.6117197265625,0.0008946809102781117,-0.0009665684774518013,-0.00024797406513243914
1772457089216738600,8.621738525390626,0.0006416805554181337,0.0006758030503988266,0.003430117852985859
1772457089226756600,8.631756591796876,-0.0004263549344614148,0.0003372742794454098,-0.0011499520624056458
1772457089236775700,8.641775634765626,-0.0010788292856886983,0.0014230450615286827,0.0009254493052139878
1772457089246793500,8.65179345703125,-0.00024143769405782223,-0.0015679148491472006,0.0002385920233791694
1772457089256812500,8.6618125,0.0021226503886282444,-0.0007170347962528467,0.0005134302191436291
1772457089266830300,8.671830322265626,-0.0017725455109030008,0.0005805995315313339,0.001636388013139367
1772457089276849400,8.681849365234376,-0.002809580648317933,-0.0009126346558332443,0.0007572786416858435
1772457089286867700,8.69186767578125,-0.00011393730528652668,0.001176898367702961,0.0008480304386466742
1772457089296886500,8.701886474609376,0.00007328297942876816,0.0010786275379359722,0.0009974337881430984
1772457089306904600,8.711904541015626,0.0009528049849905074,-0.00010173628106713295,-0.0008165918989107013
1772457089316923600,8.721923583984376,0.0003005968173965812,-0.0010871060658246279,-0.002167347352951765
1772457089326941400,8.73194140625,0.001148289069533348,0.0004808143712580204,0.0012630884302780032
1772457089336959500,8.74195947265625,-0.001506350003182888,-0.0002853770274668932,0.00039676213054917753
1772457089346978600,8.751978515625,0.0015389923937618732,-0.0003462799359112978,0.001095614512450993
1772457089356996600,8.76199658203125,0.0011480404064059258,0.0003261682577431202,-0.00111507554538548
1772457089367015700,8.772015625,0.0015976311406120658,-0.00008212961256504059,-0.0011666481150314212
1772457089377033500,8.782033447265626,0.0005036045331507921,0.0002323896624147892,0.001374540152028203
1772457089387052500,8.792052490234376,0.0031101168133318424,-0.002005502115935087,0.0005684364587068558
1772457089397070600,8.802070556640626,-0.0016361689195036888,-0.0010443672072142363,-0.0019234833307564259
1772457089407089400,8.81208935546875,-0.0006781211122870445,0.0007880795747041702,0.0001243324513779953
1772457089417107500,8.822107421875,0.0014020740054547787,-0.0007951697334647179,0.00007213448407128453
1772457089427126500,8.83212646484375,0.0006010778015479445,0.0002924185246229172,-0.0005742255598306656
1772457089437144600,8.84214453125,-0.0011864358093589544,0.003568106796592474,0.00032672181259840727
1772457089447163600,8.85216357421875,0.0018590283580124378,0.0006640595383942127,0.00037442066241055727
1772457089457181400,8.862181396484376,0.0018584957579150796,0.001700295601040125,0.00036296906182542443
1772457089467199500,8.872199462890626,0.00025590730365365744,0.001290305983275175,-0.0014373494777828455
1772457089477218600,8.882218505859376,-0.0008274666033685207,0.00016272393986582756,-0.0020637251436710358
1772457089487236600,8.892236572265626,-0.000006682472303509712,-0.0005141645669937134,-0.00015517655992880464
1772457089497255700,8.902255615234376,-0.0007827274966984987,-0.001506458269432187,0.0003423019079491496
1772457089507273700,8.912273681640626,-0.0005665547214448452,-0.0007647548336535692,0.00008165759209077805
1772457089517292500,8.92229248046875,0.004193845670670271,-0.004509692080318928,0.0005176170379854739
1772457089527310600,8.932310546875,0.001956411637365818,-0.00358263379894197,0.0014096240047365427
1772457089537329700,8.94232958984375,0.0009558619931340218,0.0010438095778226852,-0.000029281887691468
1772457089547347500,8.952347412109376,0.0003623116062954068,0.0009991154074668884,-0.0001563632977195084
1772457089557366500,8.962366455078126,-0.0027439994737505913,-0.0012943986803293228,-0.00012493800022639334
1772457089567384600,8.972384521484376,0.0004043125081807375,-0.002146099926903844,-0.00001031399006024003
1772457089577403600,8.982403564453126,0.0015318950172513723,0.0005013486370444298,0.00029488425934687257
1772457089587421700,8.992421630859376,0.002221150556579232,-0.0012416490353643894,0.0011008668225258589
1772457089597439500,9.002439453125,0.0017819952918216586,-0.0004509564023464918,-0.0015079658478498459
1772457089607458600,9.01245849609375,-0.001966841984540224,0.0007691923528909683,0.0014339238405227661
1772457089617476400,9.022476318359375,0.00027101230807602406,0.0002365601249039173,0.0014136838726699352
1772457089627495400,9.032495361328126,0.0008933992357924581,-0.0005453471094369888,-0.0010602481197565794
1772457089637513700,9.042513671875,0.0005727546522393823,0.003401723690330982,-0.0015497371787205338
1772457089647532500,9.052532470703126,0.0007866101805120707,0.0003157835453748703,0.0017325967783108354
1772457089657550600,9.062550537109376,0.002212999388575554,0.0015653385780751705,0.00045134994434192777
1772457089667569700,9.072569580078126,0.000463886302895844,-0.00026467256247997284,0.002428213832899928
1772457089677587500,9.08258740234375,0.0013073093723505735,0.0023311106488108635,0.00157067587133497
1772457089687606500,9.0926064453125,0.00012057879939675331,0.0007899338379502296,0.0000201455841306597
1772457089697624300,9.102624267578125,0.00007264188025146723,-0.0007813309784978628,-0.00024270842550322413
1772457089707643400,9.112643310546876,-0.0017478219233453274,0.0004714406095445156,-0.003280609380453825
1772457089717661700,9.12266162109375,0.00099310337100178,0.0006900862790644169,0.0008155987598001957
1772457089727680500,9.132680419921876,-0.0012088408693671227,0.0025616600178182125,0.0008608118514530361
1772457089737698600,9.142698486328126,-0.0006985790096223354,0.00005802232772111893,0.0007811833638697863
1772457089747716600,9.152716552734375,-0.00015276006888598204,-0.0010661077685654163,0.0006022964371368289
1772457089757735400,9.1627353515625,0.00008372857701033354,-0.001135616097599268,-0.0000967833329923451
1772457089767753500,9.17275341796875,0.00009527592919766903,-0.001392468810081482,-0.0009924456244334579
1772457089777772500,9.1827724609375,0.0022412510588765144,-0.00008938414976000786,-0.0010608888696879148
1772457089787790600,9.19279052734375,-0.0002982676960527897,0.0016997996717691422,-0.0018463616725057364
1772457089797809400,9.202809326171876,0.0016021640039980412,-0.0019308878108859062,0.0013465022202581167
1772457089807827500,9.212827392578125,-0.00019132171291857958,-0.0015190897975116968,-0.0009279921650886536
1772457089817846500,9.222846435546876,0.0031224496196955442,-0.00197475659660995,0.0005964011652395129
1772457089827864300,9.2328642578125,0.0005955944070592523,0.00043028080835938454,-0.0007821118924766779
1772457089837883400,9.24288330078125,0.0016901536146178842,0.0015293671749532223,-0.0013144777622073889
1772457089847901700,9.252901611328125,-0.0004127467982470989,0.000391621608287096,-0.001067916164174676
1772457089857919500,9.26291943359375,-0.0006585565861314535,0.000698684249073267,-0.0004844176000915468
1772457089867938600,9.2729384765625,-0.000443211873061955,0.0005416907370090485,0.0028458070009946823
1772457089877956400,9.282956298828125,-0.0008458819938823581,0.0005384949035942554,0.0008010317105799913
1772457089887975400,9.292975341796875,0.00180526461917907,0.00020445650443434715,0.0014103020075708628
1772457089897993500,9.302993408203125,-0.0004634822253137827,-0.0012853159569203854,-0.0027498221024870872
1772457089908012300,9.31301220703125,0.0007580731762573123,-0.0010963422246277332,-0.00012531550601124763
1772457089918030600,9.323030517578125,0.0004656580276787281,0.0021742857061326504,-0.0015921846497803926
1772457089928049700,9.333049560546876,0.0010285135358572006,-0.0011852593161165714,-0.0014780513010919094
1772457089938067500,9.3430673828125,0.0016061532078310847,-0.0007953725289553404,-0.0001179749087896198
1772457089948086500,9.35308642578125,0.0002606732305139303,0.00048418762162327766,0.0001183822751045227
1772457089958104300,9.363104248046875,-0.002203017007559538,0.002081285696476698,-0.0013325079344213009
1772457089968123400,9.373123291015625,0.0027912133373320103,0.0005071479827165604,0.0013181284302845597
1772457089978141400,9.383141357421875,-0.0003169617848470807,-0.00045425305142998695,-0.0005034736823290586
1772457089988159500,9.393159423828125,0.0023836770560592413,-0.0012606899254024029,0.0013489959528669715
1772457089998178600,9.403178466796875,0.00020201539155095816,-0.0003099413588643074,-0.0005596915725618601
1772457090008196600,9.413196533203125,0.0009958858136087656,-0.00048706657253205776,0.003731663804501295
1772457090018215400,9.42321533203125,0.0011562081053853035,0.00031587667763233185,-0.0015320739476010203
1772457090028233500,9.4332333984375,-0.0009104652563109994,0.000003017950803041458,0.0004905901150777936
1772457090038252500,9.44325244140625,-0.0003157813334837556,-0.0006230913568288088,0.0010977907804772258
1772457090048270300,9.453270263671875,-0.0012581734918057919,0.0015185698866844177,-0.001226091175340116
1772457090058289400,9.463289306640625,-0.0018869456835091114,0.0026437551714479923,0.0013691593194380403
1772457090068307500,9.473307373046875,-0.0005207580979913473,0.0023386613465845585,0.00119846872985363
1772457090078326500,9.483326416015625,-0.0004081064835190773,0.0028686304576694965,-0.0005741313798353076
1772457090088344600,9.493344482421875,-0.001542049110867083,-0.0002913200296461582,-0.002562124514952302
1772457090098363400,9.50336328125,-0.0003012825036421418,0.0008109626360237598,0.0006730835884809494
1772457090108381400,9.51338134765625,-0.00042763736564666033,0.001019506249576807,0.0030381507240235806
1772457090118400500,9.523400390625,0.00001205061562359333,0.0007875445298850536,-0.0010852215345948935
1772457090128418600,9.53341845703125,0.0003753798082470894,0.0022001564502716064,-0.0010540554067119956
1772457090138436600,9.5434365234375,0.0008443624246865511,-0.0005508887115865946,0.0010277375113219023
1772457090148455400,9.553455322265625,-0.0013738726265728474,0.0007215021178126335,-0.0009308128501288593
1772457090158473500,9.563473388671875,0.0011236397549510002,-0.0013256699312478304,-0.00014784347149543464
1772457090168492500,9.573492431640625,0.0013465633383020759,-0.0001735091209411621,0.0002463434939272702
1772457090178510300,9.58351025390625,0.0009436270920559764,-0.0015282591339200735,0.0007731167715974152
1772457090188529400,9.593529296875,0.0009361194679513574,-0.00018532248213887215,-0.0010190011234954
1772457090198547500,9.60354736328125,0.0018447900656610727,-0.0005392567254602909,0.0018193959258496761
1772457090208566500,9.61356640625,0.0019415365532040596,0.000805999618023634,0.00013874919386580586
1772457090218584600,9.62358447265625,-0.001496870769187808,-0.00002943398430943489,-0.001509481226094067
1772457090228603400,9.633603271484375,0.0009576760930940509,-0.0003994237631559372,0.0028991922736167908
1772457090238621400,9.643621337890625,0.00048709555994719267,-0.00010940572246909142,-0.0008976764511317015
1772457090248639500,9.653639404296875,0.0009775247890502214,-0.0019396361894905567,-0.00039446636219508946
1772457090258658300,9.663658203125,0.001256357878446579,-0.0010946153197437525,0.0002263164788018912
1772457090268676600,9.673676513671875,0.001061311922967434,-0.00028392253443598747,-0.002506256802007556
1772457090278695700,9.68369580078125,0.0020530731417238712,-0.00236837868578732,-0.0007728053024038672
1772457090288713500,9.69371337890625,0.002922145649790764,-0.0002949545159935951,-0.001224561594426632
1772457090298732500,9.703732666015625,0.0017809809651225805,0.0012233136221766472,-0.0027691952418535948
1772457090308750300,9.713750244140625,-0.0003210827708244324,-0.001136081526055932,-0.002896586898714304
1772457090318769400,9.723769287109375,-0.0006137641612440348,0.0007355879060924053,0.0010275808162987232
1772457090328787500,9.733787353515625,-0.002064870670437813,-0.00010748859494924545,-0.0015105258207768202
1772457090338806300,9.74380615234375,0.002030538395047188,-0.0008318684995174408,-0.0020021451637148857
1772457090348824600,9.753824462890625,0.00021646940149366856,0.0004536965861916542,0.0002970391360577196
1772457090358843600,9.76384375,0.0010487071704119444,0.0009192172437906265,-0.0005375955370254815
1772457090368861400,9.773861328125,-0.0009099099552258849,0.0005579427815973759,0.000241033238125965
1772457090378879500,9.78387939453125,0.0020754935685545206,0.00016592536121606827,0.0017590350471436977
1772457090388898300,9.793898193359375,0.0011017204960808158,-0.0001598075032234192,0.0032045417465269566
1772457090398916600,9.80391650390625,-0.0020258957520127296,0.00044552888721227646,0.00008944227010942996
1772457090408935400,9.813935302734375,-0.000598565093241632,-0.0013655778020620346,-0.0012064198963344097
1772457090418953500,9.823953369140625,0.0008840167429298162,0.00046055205166339874,-0.00046925689093768597
1772457090428972500,9.83397265625,0.0007579611847177148,-0.000020497478544712067,0.0028184072580188513
1772457090438990600,9.843990478515625,-0.0018412841018289328,-0.00045858719386160374,-0.0008317214087583125
1772457090449009400,9.854009521484375,0.0007458252948708832,-0.002435064874589443,-0.0004812250845134258
1772457090459027500,9.86402734375,0.0006017483538016677,0.0008374275639653206,0.0008591438527218997
1772457090469046500,9.874046630859375,-0.0020058511290699244,-0.003046175930649042,-0.0006484694313257933
1772457090479064600,9.884064697265625,-0.0005469713360071182,-0.0007755646947771311,0.0006756542716175318
1772457090489083600,9.894083740234375,0.002816921565681696,-0.002355145290493965,0.0005834876792505383
1772457090499101400,9.904101318359375,0.0028358297422528267,-0.003457427490502596,0.002322798129171133
1772457090509119500,9.914119384765625,-0.00069729785900563,0.00023203250020742416,0.0006156394956633449
1772457090519138600,9.924138671875,-0.0005649387603625655,-0.0014047464355826378,0.0019203221891075373
1772457090529156400,9.93415625,0.0003130718832835555,-0.00017164088785648346,0.001705783884972334
1772457090539175400,9.944175537109375,-0.0005793534219264984,0.000010252930223941803,0.0006303994450718164
1772457090549193500,9.954193359375,-0.0008159260032698512,0.0014737690798938274,0.0006290681776590645
1772457090559212500,9.964212646484375,0.0003026016056537628,-0.00004316726699471474,-0.0015762955881655216
1772457090569230600,9.974230712890625,-0.0001316178822889924,-0.002139477292075753,0.0018819809192791581
1772457090579249400,9.98424951171875,0.0003879648866131902,-0.0014731544069945812,0.0002595832629594952
1772457090589267500,9.994267333984375,-0.0015333148185163736,-0.001967040589079261,0.0009419592097401619
1772457090599286500,10.00428662109375,0.0013130716979503632,-0.001780619379132986,0.0028783436864614487
1772457090609304300,10.01430419921875,-0.000039255828596651554,0.00023644091561436653,-0.00017094038776122034
1772457090619322600,10.024322509765625,-0.0019910866394639015,-0.00042002834379673004,0.0006967175286263227
1772457090629341400,10.034341552734375,0.00031067803502082825,-0.0001280335709452629,0.000746182631701231
1772457090639359500,10.044359375,-0.00041982706170529127,0.0014379052445292473,0.001085203024558723
1772457090649378600,10.054378662109375,0.00007362861651927233,-0.0025654234923422337,0.002632149728015065
1772457090659396400,10.064396240234375,-0.00012078217696398497,0.00035206926986575127,0.0005932333879172802
1772457090669415400,10.07441552734375,-0.000589877599850297,-0.0005975165404379368,-0.001626433222554624
1772457090679433500,10.08443359375,-0.0017387652769684792,-0.0005322692450135946,0.0027600594330579042
1772457090689452300,10.094452392578125,-0.0021379615645855665,0.0013799616135656834,0.0014281008625403047
1772457090699470600,10.104470703125,-0.0008769547566771507,-0.0013543057721108198,-0.0013996436027809978
1772457090709489700,10.11448974609375,0.00018676766194403172,0.00005425000563263893,0.001815565163269639
1772457090719507500,10.124507568359375,-0.001154133933596313,-0.003596144961193204,-0.0028609458822757006
1772457090729526500,10.134526611328125,-0.0002466512378305197,0.0009022029116749763,-0.0008956093224696815
1772457090739544300,10.14454443359375,-0.0010080488864332438,-0.0006368379108607769,0.00040401326259598136
1772457090749562600,10.154562744140625,-0.0005286299856379628,-0.0015180071350187063,0.0005576437688432634
1772457090759581700,10.164581787109375,0.0010602119145914912,-0.000942764338105917,-0.0008991053909994662
1772457090769600000,10.17460009765625,-0.0012186231324449182,0.0015371115878224373,-0.001277954550459981
1772457090779618800,10.184618896484375,0.0005318725015968084,-0.0001276303082704544,-0.0015852833166718483
1772457090789636900,10.194636962890625,0.0006051075179129839,-0.0007881612982600927,-0.002050102688372135
1772457090799656000,10.204656005859375,-0.0017224951880052686,-0.0004984093829989433,-0.0006452853558585048
1772457090809673700,10.214673828125,-0.0029539805836975574,0.0015982701443135738,-0.0007072341977618635
1772457090819692800,10.22469287109375,-0.0009773822966963053,0.002290691714733839,0.001754591939970851
1772457090829710800,10.2347109375,0.0021093112882226706,0.0019031516276299953,-0.0009612123831175268
1772457090839729700,10.244729736328125,0.000340706086717546,-0.00022684456780552864,0.0036196911241859198
1772457090849748000,10.254748046875,0.0009776505175977945,-0.0006598744075745344,0.0014842790551483631
1772457090859766800,10.264766845703125,-0.0030122974421828985,0.001519390381872654,0.0019346196204423904
1772457090869784800,10.274784912109375,0.0016988333081826568,0.0015956936404109001,-0.0008655610727146268
1772457090879802600,10.284802734375,0.0014002929674461484,-0.0001649223268032074,-0.00004317701677791774
1772457090889821700,10.29482177734375,0.0018508885987102985,-0.00028242403641343117,-0.0006530546816065907
1772457090899840000,10.304840087890625,0.0018199959304183722,0.001277655828744173,0.0010428462410345674
1772457090909858800,10.31485888671875,0.0003095316933467984,-0.0008131284266710281,-0.003853140864521265
1772457090919876900,10.324876953125,0.0009012860246002674,0.0009490852244198322,0.00009419629350304604
1772457090929896000,10.33489599609375,0.0014870656887069345,-0.000020812731236219406,0.003881915705278516
1772457090939913700,10.344913818359375,0.0016298111295327544,0.00025162845849990845,-0.001759192207828164
1772457090949932800,10.354932861328125,0.0005030238535255194,-0.0009506768546998501,-0.0005264339852146804
1772457090959950800,10.364950927734375,0.00031580368522554636,-0.0012729193549603224,0.0020259395241737366
1772457090969969000,10.374968994140625,-0.00009837513789534569,0.002468775026500225,-0.000004249246558174491
1772457090979987000,10.384987060546875,0.00042413698974996805,0.0007845917716622353,-0.0005075866356492043
1772457090990005800,10.395005859375,-0.001236004987731576,0.0019706073217093945,0.0005803698441013694
1772457091000023800,10.40502392578125,-0.000436257803812623,0.0002502049319446087,-0.00008408885332755744
1772457091010043000,10.41504296875,-0.0008300183108076453,0.001653722021728754,-0.002269319025799632
1772457091020060700,10.425060791015625,-0.000653983443044126,0.0015373420901596546,0.00047293788520619273
1772457091030079700,10.435079833984375,0.0018105513881891966,-0.002077787183225155,-0.002265579765662551
1772457091040097800,10.445097900390625,0.0016651427140459418,0.0013020304031670094,-0.0015427980106323957
1772457091050116900,10.455116943359375,-0.0012074331752955914,-0.00017980579286813736,0.00021041482978034765
1772457091060135000,10.465135009765625,0.0005798143101856112,0.0014354013837873936,0.0008365239482372999
1772457091070153700,10.47515380859375,-0.0010549802100285888,0.0004078224301338196,-0.0015401782002300024
1772457091080171800,10.485171875,0.002106990898028016,-0.0005724872462451458,0.0017110088374465704
1772457091090190800,10.49519091796875,0.0006790851475670934,0.0010244017466902733,0.0011506814043968916
1772457091100208600,10.505208740234375,-0.00003251153975725174,0.0004443651996552944,0.00009899913857225329
1772457091110227000,10.51522705078125,-0.0010316363768652081,0.00016766460612416267,-0.0012326915748417377
1772457091120245800,10.525245849609375,0.0017867869464680552,0.0009932443499565125,0.00018277850176673383
1772457091130263800,10.535263916015625,0.0013842578046023846,0.0005280198529362679,-0.0007804521010257304
1772457091140283000,10.545282958984375,0.0009799899999052286,0.00043933652341365814,-0.0004211916821077466
1772457091150300700,10.55530078125,0.00011515978258103132,0.00008651753887534142,0.00012441993749234825
1772457091160319700,10.56531982421875,-0.00013677531387656927,0.0021430104970932007,-0.0011701425537467003
1772457091170337800,10.575337890625,0.0006791225168853998,0.00013197865337133408,-0.00214350875467062
1772457091180356900,10.58535693359375,0.0006279898807406425,0.0032252403907477856,-0.0022020982578396797
1772457091190375000,10.595375,0.0015309636946767569,-0.0008374534081667662,-0.001846769475378096
1772457091200394000,10.60539404296875,0.00005663780029863119,0.0014962744899094105,0.0009633981972001493
1772457091210411800,10.615411865234375,-0.00013160810340195894,-0.000992851797491312,-0.002004518173635006
1772457091220429800,10.625429931640625,-0.003796383971348405,0.0018412843346595764,-0.0014971860218793154
1772457091230448600,10.63544873046875,0.0014307836536318064,-0.000015242956578731537,-0.0008870987803675234
1772457091240467000,10.645467041015625,0.0002973423106595874,0.00042231427505612373,-0.0034394722897559404
1772457091250486000,10.655486083984375,0.001743997447192669,-0.00235068635083735,-0.0008191906381398439
1772457091260503800,10.66550390625,0.0015631687128916383,0.0002664020285010338,0.002878342056646943
1772457091270523000,10.67552294921875,0.00004046107642352581,0.001384467352181673,-0.0009239226928912103
1772457091280540700,10.685540771484375,-0.0008799275383353233,0.0006989696994423866,0.0009285721462219954
1772457091290559700,10.695559814453125,-0.00010391848627477884,0.001565918792039156,0.00020552417845465243
1772457091300577800,10.705577880859375,-0.0003244283143430948,-0.0014437194913625717,0.00033655168954283
1772457091310596600,10.7155966796875,0.003061392344534397,0.00022659171372652054,0.0005960841663181782
1772457091320615000,10.725614990234375,-0.0020428220741450787,0.0008481736294925213,-0.0007943521486595273
1772457091330634000,10.735634033203125,0.00200452608987689,0.001065075397491455,-0.00035343875060789287
1772457091340651800,10.74565185546875,-0.0007534435717388988,0.0007697311230003834,-0.0021902211010456085
1772457091350669800,10.755669921875,-0.0012551028048619628,-0.0003231863956898451,-0.002714803908020258
1772457091360689000,10.76568896484375,-0.0009874551324173808,0.00044753262773156166,-0.0007946648402139544
1772457091370706700,10.775706787109375,-0.0000979084288701415,0.0023543001152575016,-0.00007825536886230111
1772457091380725800,10.785725830078125,0.00016814132686704397,0.0004296335391700268,-0.0000012900272849947214
1772457091390743800,10.795743896484375,0.0013009122340008616,0.00006549851968884468,0.00031605418189428747
1772457091400763000,10.805762939453125,0.00009716348722577095,0.00043061794713139534,0.0017677433788776398
1772457091410781000,10.815781005859375,0.0011160419089719653,-0.0010092081502079964,0.0010223966091871262
1772457091420799700,10.8257998046875,0.002896631369367242,-0.0023269401863217354,0.00007937120972201228
1772457091430817800,10.83581787109375,-0.001827787607908249,0.0015743914991617203,-0.0013902244390919805
1772457091440836900,10.8458369140625,-0.00021684158127754927,-0.0013124754186719656,0.0018726804992184043
1772457091450854700,10.855854736328125,0.0017080125398933887,-0.0010036274325102568,-0.0003519666788633913
1772457091460873000,10.865873046875,0.001051010680384934,0.00027895113453269005,0.00046029745135456324
1772457091470891800,10.875891845703125,-0.000768094090744853,-0.0005430039018392563,-0.0033141460735350847
1772457091480909800,10.885909912109375,-0.0008783489465713501,-0.0006636450998485088,-0.00040197945781983435
1772457091490929000,10.895928955078125,-0.0011562692234292626,-0.001480000326409936,0.0018448870396241546
1772457091500946700,10.90594677734375,0.000942834245506674,-0.0013982413802295923,0.002218262292444706
1772457091510965800,10.9159658203125,0.002119282493367791,-0.0026697907596826553,0.0005138253327459097
1772457091520983800,10.92598388671875,0.0017773325089365244,-0.00001248857006430626,-0.00037567049730569124
1772457091531003000,10.9360029296875,0.0009080407908186316,0.002630277071148157,0.0011263322085142136
1772457091541021000,10.94602099609375,-0.00025496166199445724,0.0007279808633029461,-0.0008721038466319442
1772457091551039700,10.956039794921875,-0.0002494174987077713,-0.000526034738868475,-0.0020723105408251286
1772457091561057800,10.966057861328125,0.0007239679107442498,-0.00013881083577871323,0.00010082880908157676
1772457091571076900,10.976076904296875,-0.0022701623383909464,-0.0013671068008989096,-0.004196683876216412
1772457091581094700,10.9860947265625,0.00034772499930113554,-0.0016296945977956057,0.0014311079867184162
1772457091591113000,10.996113037109374,-0.0002628554357215762,-0.0007486613467335701,-0.001547358464449644
1772457091601132000,11.006132080078125,0.0004407517844811082,0.0003528222441673279,0.0007576073985546827
1772457091611149800,11.01614990234375,-0.001964828697964549,-0.00021185819059610367,-0.0009447081247344613
1772457091621169000,11.0261689453125,-0.0026892083697021008,0.00005632173269987106,-0.00011353558511473238
1772457091631186700,11.036186767578124,0.0010155302006751299,0.00022505270317196846,-0.0008897894294932485
1772457091641205800,11.046205810546875,-0.00009687209967523813,-0.0002828119322657585,-0.0007523703388869762
1772457091651223800,11.056223876953124,-0.0000630207359790802,-0.00023225555196404457,-0.0022504576481878757
1772457091661242600,11.06624267578125,-0.005984825547784567,0.019623473286628723,0.08665864914655685
1772457091671261000,11.076260986328125,-0.0020033717155456543,0.006020011845976114,0.1940387487411499
1772457091681280000,11.086280029296875,0.0017239886801689863,-0.0022877189330756664,0.2122987061738968
1772457091691297800,11.0962978515625,0.001603749580681324,-0.00430650170892477,0.08789617568254471
1772457091701315800,11.10631591796875,0.0003049259539693594,-0.007221331354230642,-0.11548543721437454
1772457091711334700,11.116334716796874,-0.008409733884036541,0.005077998153865337,-0.2505674362182617
1772457091721352700,11.126352783203124,-0.003285013372078538,0.0010984367690980434,-0.34737199544906616
1772457091731371800,11.136371826171874,-0.000012828269973397255,0.0019792867824435234,0.0036350793670862913
1772457091741389800,11.146389892578124,-0.0029681383166462183,-0.003000824246555567,0.23815198242664337
1772457091751409000,11.156408935546875,0.001999013125896454,-0.00395499961450696,0.015629027038812637
