time,seconds_elapsed,z,y,x
1772457155204629500,0.06062939453125,-0.988067626953125,0.022491455078125,0.0121307373046875
1772457155214648600,0.070648681640625,-1.0008697509765625,0.025543212890625,0.0125885009765625
1772457155224666600,0.08066650390625,-0.99908447265625,0.0246734619140625,0.011474609375
1772457155234684400,0.090684326171875,-0.988128662109375,0.0214691162109375,0.014190673828125
1772457155244703500,0.100703369140625,-0.994140625,0.0225372314453125,0.0123443603515625
1772457155254721500,0.110721435546875,-1.002716064453125,0.0228729248046875,0.0123443603515625
1772457155264740400,0.120740234375,-0.9947052001953125,0.02288818359375,0.01348876953125
1772457155274758700,0.130758544921875,-0.9915313720703125,0.0212860107421875,0.0140838623046875
1772457155284777700,0.14077783203125,-0.996673583984375,0.0219879150390625,0.01251220703125
1772457155294795500,0.15079541015625,-0.9973297119140625,0.023223876953125,0.012664794921875
1772457155304813600,0.1608134765625,-0.9933929443359375,0.022674560546875,0.0132904052734375
1772457155314832400,0.170832275390625,-0.9947357177734375,0.023193359375,0.0142364501953125
1772457155324850400,0.180850341796875,-0.99676513671875,0.022491455078125,0.01397705078125
1772457155334869500,0.190869384765625,-0.994659423828125,0.02191162109375,0.0142059326171875
1772457155344887600,0.200887451171875,-0.995208740234375,0.0230865478515625,0.0130462646484375
1772457155354905600,0.210905517578125,-0.99462890625,0.0233306884765625,0.0147857666015625
1772457155364924400,0.22092431640625,-0.99322509765625,0.0217742919921875,0.0128936767578125
1772457155374942500,0.2309423828125,-0.997039794921875,0.022491455078125,0.0128173828125
1772457155384961500,0.24096142578125,-0.9961395263671875,0.0233612060546875,0.013580322265625
1772457155394979600,0.2509794921875,-0.9951324462890625,0.0228729248046875,0.012725830078125
1772457155404998700,0.26099853515625,-0.9972686767578125,0.023590087890625,0.01312255859375
1772457155415016400,0.271016357421875,-0.9941558837890625,0.021575927734375,0.01300048828125
1772457155425034500,0.281034423828125,-0.994415283203125,0.0218505859375,0.014801025390625
1772457155435053600,0.291053466796875,-0.995208740234375,0.0222625732421875,0.012939453125
1772457155445071400,0.3010712890625,-0.997833251953125,0.023223876953125,0.0134735107421875
1772457155455090400,0.31109033203125,-0.9952239990234375,0.0229339599609375,0.014404296875
1772457155465108700,0.321108642578125,-0.9948272705078125,0.022705078125,0.0123138427734375
1772457155475126500,0.33112646484375,-0.9965057373046875,0.0224151611328125,0.0117645263671875
1772457155485145600,0.3411455078125,-0.9951019287109375,0.02264404296875,0.0123138427734375
1772457155495163400,0.351163330078125,-0.994659423828125,0.02191162109375,0.0142974853515625
1772457155505182500,0.361182373046875,-0.9942474365234375,0.019989013671875,0.013580322265625
1772457155515200500,0.371200439453125,-0.99481201171875,0.0215301513671875,0.013427734375
1772457155525218600,0.381218505859375,-0.994964599609375,0.0227203369140625,0.014190673828125
1772457155535237600,0.391237548828125,-0.9954071044921875,0.023529052734375,0.0141448974609375
1772457155545255400,0.40125537109375,-0.993865966796875,0.0233154296875,0.0133056640625
1772457155555274500,0.4112744140625,-0.99468994140625,0.0225677490234375,0.01177978515625
1772457155565292500,0.42129248046875,-0.9963226318359375,0.02264404296875,0.013153076171875
1772457155575310600,0.431310546875,-0.99505615234375,0.0208587646484375,0.015228271484375
1772457155585329400,0.441329345703125,-0.9955902099609375,0.0223541259765625,0.01220703125
1772457155595347700,0.45134765625,-0.9963531494140625,0.0215911865234375,0.01300048828125
1772457155605366500,0.461366455078125,-0.995147705078125,0.02252197265625,0.0131378173828125
1772457155615384600,0.471384521484375,-0.993408203125,0.0223388671875,0.0123443603515625
1772457155625403600,0.481403564453125,-0.9961395263671875,0.0250396728515625,0.0115509033203125
1772457155635421400,0.49142138671875,-0.9962158203125,0.022491455078125,0.0123138427734375
1772457155645439700,0.501439697265625,-0.994110107421875,0.0218048095703125,0.0113983154296875
1772457155655458600,0.51145849609375,-0.9934844970703125,0.022125244140625,0.014678955078125
1772457155665476600,0.5214765625,-0.9945526123046875,0.0209503173828125,0.0141754150390625
1772457155675495700,0.53149560546875,-0.9940185546875,0.020721435546875,0.0131378173828125
1772457155685513500,0.541513427734375,-0.9940032958984375,0.0229339599609375,0.013519287109375
1772457155695531500,0.551531494140625,-0.99652099609375,0.024017333984375,0.0126190185546875
1772457155705550300,0.56155029296875,-0.995208740234375,0.022369384765625,0.012237548828125
1772457155715568600,0.571568603515625,-0.9944610595703125,0.0233612060546875,0.01300048828125
1772457155725587700,0.581587646484375,-0.9947967529296875,0.0238037109375,0.0126190185546875
1772457155735605500,0.59160546875,-0.996063232421875,0.0225830078125,0.012664794921875
1772457155745624600,0.60162451171875,-0.9952392578125,0.0215911865234375,0.0132904052734375
1772457155755642400,0.611642333984375,-0.994384765625,0.0236358642578125,0.0128936767578125
1772457155765660400,0.621660400390625,-0.995025634765625,0.0206146240234375,0.012451171875
1772457155775679500,0.631679443359375,-0.9946136474609375,0.0231170654296875,0.01300048828125
1772457155785697500,0.641697509765625,-0.994140625,0.024505615234375,0.0137481689453125
1772457155795716600,0.651716552734375,-0.995147705078125,0.023193359375,0.0117034912109375
1772457155805734700,0.661734619140625,-0.9944000244140625,0.022216796875,0.012908935546875
1772457155815752400,0.67175244140625,-0.99603271484375,0.0214996337890625,0.0122528076171875
1772457155825771300,0.681771240234375,-0.99505615234375,0.02197265625,0.01104736328125
1772457155835789600,0.69178955078125,-0.9955902099609375,0.0207672119140625,0.0126190185546875
1772457155845808400,0.701808349609375,-0.9967193603515625,0.0201873779296875,0.0130462646484375
1772457155855826400,0.711826416015625,-0.994903564453125,0.0227813720703125,0.013275146484375
1772457155865844500,0.721844482421875,-0.995330810546875,0.02362060546875,0.013427734375
1772457155875863300,0.73186328125,-0.9943389892578125,0.021759033203125,0.013397216796875
1772457155885881300,0.74188134765625,-0.9935455322265625,0.021820068359375,0.0133056640625
1772457155895900400,0.751900390625,-0.9931488037109375,0.0229949951171875,0.013916015625
1772457155905918500,0.76191845703125,-0.9968109130859375,0.0218048095703125,0.0125732421875
1772457155915936500,0.7719365234375,-0.99554443359375,0.0220947265625,0.0127410888671875
1772457155925955300,0.781955322265625,-0.9967041015625,0.021392822265625,0.013336181640625
1772457155935973400,0.791973388671875,-0.997650146484375,0.0237579345703125,0.0114288330078125
1772457155945992400,0.801992431640625,-1.01123046875,0.02679443359375,0.0142669677734375
1772457155956010200,0.81201025390625,-0.976806640625,0.01739501953125,0.0128326416015625
1772457155966029300,0.822029296875,-0.98162841796875,0.01763916015625,0.0126800537109375
1772457155976047600,0.832047607421875,-1.010467529296875,0.0266876220703125,0.0138092041015625
1772457155986065400,0.8420654296875,-1.0066375732421875,0.0226898193359375,0.0140838623046875
1772457155996084500,0.85208447265625,-0.9824676513671875,0.01739501953125,0.012725830078125
1772457156006102300,0.862102294921875,-0.98419189453125,0.021453857421875,0.012481689453125
1772457156016121300,0.872121337890625,-1.0052337646484375,0.0258941650390625,0.0132598876953125
1772457156026139400,0.882139404296875,-1.0012664794921875,0.0242156982421875,0.013763427734375
1772457156036157400,0.892157470703125,-0.981170654296875,0.0193939208984375,0.0130615234375
1772457156046176500,0.902176513671875,-0.995086669921875,0.022918701171875,0.012176513671875
1772457156056194300,0.9121943359375,-1.0110015869140625,0.0252685546875,0.012420654296875
1772457156066213400,0.92221337890625,-0.991424560546875,0.019866943359375,0.0122528076171875
1772457156076231400,0.9322314453125,-0.9867706298828125,0.0193328857421875,0.0152130126953125
1772457156086249500,0.94224951171875,-1.0016326904296875,0.0227508544921875,0.01226806640625
1772457156096268300,0.952268310546875,-1.0012054443359375,0.0238189697265625,0.01416015625
1772457156106286300,0.962286376953125,-0.990997314453125,0.0210113525390625,0.01190185546875
1772457156116305400,0.972305419921875,-0.9922637939453125,0.0220794677734375,0.01434326171875
1772457156126323500,0.982323486328125,-0.9979095458984375,0.0239410400390625,0.014007568359375
1772457156136341200,0.99234130859375,-0.998931884765625,0.0241241455078125,0.0107269287109375
1772457156146360300,1.0023603515625,-0.993988037109375,0.0228271484375,0.0139312744140625
1772457156156378600,1.012378662109375,-0.9926910400390625,0.02154541015625,0.0142059326171875
1772457156166397400,1.0223974609375,-0.9962005615234375,0.022796630859375,0.01409912109375
1772457156176415500,1.03241552734375,-0.9968109130859375,0.0215911865234375,0.011627197265625
1772457156186434600,1.0424345703125,-0.9930572509765625,0.0222015380859375,0.012054443359375
1772457156196452400,1.052452392578125,-0.9940032958984375,0.024139404296875,0.012939453125
1772457156206470400,1.062470458984375,-0.99688720703125,0.0235748291015625,0.0117034912109375
1772457156216489200,1.0724892578125,-0.99365234375,0.022918701171875,0.01318359375
1772457156226507500,1.082507568359375,-0.992950439453125,0.021209716796875,0.01513671875
1772457156236526600,1.092526611328125,-0.995452880859375,0.0225677490234375,0.013397216796875
1772457156246544400,1.10254443359375,-0.997589111328125,0.0214385986328125,0.0125274658203125
1772457156256562400,1.1125625,-0.99566650390625,0.0218658447265625,0.0113677978515625
1772457156266581200,1.122581298828125,-0.993988037109375,0.024078369140625,0.0120086669921875
1772457156276599300,1.132599365234375,-0.995025634765625,0.0232391357421875,0.014739990234375
1772457156286618400,1.142618408203125,-0.9947967529296875,0.0221405029296875,0.0118560791015625
1772457156296636400,1.152636474609375,-0.99554443359375,0.022674560546875,0.011505126953125
1772457156306654500,1.162654541015625,-0.99530029296875,0.0239410400390625,0.01300048828125
1772457156316673500,1.172673583984375,-0.9950714111328125,0.0218505859375,0.013427734375
1772457156326691300,1.18269140625,-0.994964599609375,0.0222015380859375,0.0128631591796875
1772457156336710400,1.19271044921875,-0.9954681396484375,0.0233154296875,0.0135040283203125
1772457156346728400,1.202728515625,-0.993133544921875,0.0227508544921875,0.0143890380859375
1772457156356746500,1.21274658203125,-0.994476318359375,0.023651123046875,0.0119781494140625
1772457156366765600,1.222765625,-0.996734619140625,0.0236663818359375,0.01123046875
1772457156376783400,1.232783447265625,-0.9949493408203125,0.02374267578125,0.0128936767578125
1772457156386802400,1.242802490234375,-0.9954071044921875,0.0228118896484375,0.013519287109375
1772457156396820200,1.2528203125,-0.996002197265625,0.0220947265625,0.01239013671875
1772457156406839300,1.26283935546875,-0.9952850341796875,0.022308349609375,0.01373291015625
1772457156416857600,1.272857666015625,-0.99359130859375,0.022674560546875,0.0147552490234375
1772457156426875400,1.28287548828125,-0.996978759765625,0.0224761962890625,0.0125732421875
1772457156436894500,1.29289453125,-0.9960479736328125,0.0230865478515625,0.011505126953125
1772457156446912300,1.302912353515625,-0.99407958984375,0.0232086181640625,0.013885498046875
1772457156456931300,1.312931396484375,-0.9954681396484375,0.0214691162109375,0.013946533203125
1772457156466949400,1.322949462890625,-0.995452880859375,0.0216064453125,0.0121002197265625
1772457156476967400,1.332967529296875,-0.9937591552734375,0.0220489501953125,0.01153564453125
1772457156486986500,1.342986572265625,-0.9942626953125,0.0232086181640625,0.011749267578125
1772457156497004500,1.353004638671875,-0.996826171875,0.0227508544921875,0.014801025390625
1772457156507023400,1.3630234375,-0.9960479736328125,0.021942138671875,0.0125579833984375
1772457156517041400,1.37304150390625,-0.995391845703125,0.0218048095703125,0.0128173828125
1772457156527059200,1.38305908203125,-0.9942626953125,0.0224609375,0.01287841796875
1772457156537078300,1.393078369140625,-0.9940185546875,0.0222625732421875,0.0135345458984375
1772457156547096600,1.4030966796875,-0.9957427978515625,0.0217437744140625,0.01177978515625
1772457156557115400,1.413115478515625,-0.99560546875,0.022247314453125,0.0120086669921875
1772457156567133400,1.423133544921875,-0.9969482421875,0.0220184326171875,0.012725830078125
1772457156577151200,1.433151123046875,-0.9950408935546875,0.021514892578125,0.01129150390625
1772457156587170300,1.44317041015625,-0.9945831298828125,0.0229644775390625,0.0105743408203125
1772457156597188400,1.453188232421875,-0.9960174560546875,0.0232696533203125,0.0117645263671875
1772457156607207400,1.46320751953125,-0.996429443359375,0.024017333984375,0.0130157470703125
1772457156617225500,1.4732255859375,-0.9952392578125,0.023101806640625,0.0123138427734375
1772457156627243500,1.483243408203125,-0.995574951171875,0.0228729248046875,0.015289306640625
1772457156637262300,1.493262451171875,-0.995025634765625,0.0218048095703125,0.0141448974609375
1772457156647280400,1.5032802734375,-0.994659423828125,0.0215606689453125,0.0133056640625
1772457156657299500,1.513299560546875,-0.9965057373046875,0.0237274169921875,0.0131072998046875
1772457156667317500,1.5233173828125,-0.994873046875,0.02252197265625,0.0123291015625
1772457156677335600,1.53333544921875,-0.9954376220703125,0.023101806640625,0.012298583984375
1772457156687354400,1.543354248046875,-0.9963226318359375,0.0234222412109375,0.0128631591796875
1772457156697372400,1.553372314453125,-0.994659423828125,0.0228424072265625,0.01220703125
1772457156707391500,1.5633916015625,-0.9955902099609375,0.022552490234375,0.01361083984375
1772457156717409300,1.5734091796875,-0.9948577880859375,0.0227203369140625,0.0131378173828125
1772457156727428400,1.583428466796875,-0.9954376220703125,0.0227203369140625,0.012542724609375
1772457156737446400,1.5934462890625,-0.9952392578125,0.022064208984375,0.0133056640625
1772457156747464400,1.60346435546875,-0.995513916015625,0.0223846435546875,0.013092041015625
1772457156757483500,1.6134833984375,-0.9954376220703125,0.0222320556640625,0.0139312744140625
1772457156767501300,1.623501220703125,-0.993804931640625,0.022186279296875,0.0125579833984375
1772457156777520400,1.633520263671875,-0.995208740234375,0.0230712890625,0.013031005859375
1772457156787538200,1.6435380859375,-0.996673583984375,0.02301025390625,0.0133819580078125
1772457156797556500,1.653556396484375,-0.9951171875,0.02239990234375,0.0128631591796875
1772457156807575600,1.663575439453125,-0.9961395263671875,0.0217437744140625,0.0135498046875
1772457156817593300,1.67359326171875,-0.9959716796875,0.0229949951171875,0.0109100341796875
1772457156827612000,1.68361181640625,-0.9958038330078125,0.0216064453125,0.011474609375
1772457156837629700,1.693629638671875,-0.9959259033203125,0.0208740234375,0.0130462646484375
1772457156847648000,1.70364794921875,-0.99517822265625,0.0217742919921875,0.0124664306640625
1772457156857666800,1.713666748046875,-0.9944915771484375,0.0222015380859375,0.014617919921875
1772457156867684900,1.723684814453125,-0.9958343505859375,0.0238800048828125,0.0130767822265625
1772457156877704000,1.733703857421875,-1.0010528564453125,0.022796630859375,0.0134735107421875
1772457156887721700,1.7437216796875,-0.9896240234375,0.0211181640625,0.013763427734375
1772457156897739800,1.75373974609375,-0.994598388671875,0.0226287841796875,0.0131072998046875
1772457156907758600,1.763758544921875,-1.0020751953125,0.0239105224609375,0.01263427734375
1772457156917777000,1.77377685546875,-0.996185302734375,0.0201263427734375,0.01300048828125
1772457156927796000,1.7837958984375,-0.9862518310546875,0.0182342529296875,0.011810302734375
1772457156937813800,1.793813720703125,-0.9943695068359375,0.021575927734375,0.0130462646484375
1772457156947831800,1.803831787109375,-1.0049896240234375,0.02587890625,0.0136566162109375
1772457156957851000,1.813850830078125,-0.9968414306640625,0.024566650390625,0.0137786865234375
1772457156967869000,1.823868896484375,-0.9859619140625,0.0223541259765625,0.0147247314453125
1772457156977887700,1.8338876953125,-0.99749755859375,0.02349853515625,0.0140380859375
1772457156987905800,1.84390576171875,-1.0012969970703125,0.022186279296875,0.0112457275390625
1772457156997923800,1.853923828125,-0.9946746826171875,0.0192718505859375,0.0134735107421875
1772457157007943000,1.86394287109375,-0.9918060302734375,0.0207061767578125,0.012542724609375
1772457157017960700,1.873960693359375,-0.99859619140625,0.023834228515625,0.013824462890625
1772457157027979800,1.883979736328125,-0.9976806640625,0.0241851806640625,0.0142974853515625
1772457157037997800,1.893997802734375,-0.9931488037109375,0.0223846435546875,0.0122833251953125
1772457157048016000,1.904015869140625,-0.9912261962890625,0.0226593017578125,0.0122222900390625
1772457157058035000,1.914034912109375,-0.9970855712890625,0.023101806640625,0.0125579833984375
1772457157068052700,1.924052734375,-0.9956207275390625,0.0227508544921875,0.0141754150390625
1772457157078071800,1.93407177734375,-0.994659423828125,0.021148681640625,0.0125579833984375
1772457157088089600,1.944089599609375,-0.9974822998046875,0.0218353271484375,0.014007568359375
1772457157098108000,1.95410791015625,-0.9981536865234375,0.022735595703125,0.0112152099609375
1772457157108127000,1.964126953125,-0.9947967529296875,0.022125244140625,0.0128326416015625
1772457157118144800,1.974144775390625,-0.993560791015625,0.0224456787109375,0.0131683349609375
1772457157128163800,1.984163818359375,-0.9955902099609375,0.0234375,0.0124359130859375
1772457157138182000,1.994181884765625,-0.9962158203125,0.02447509765625,0.0120086669921875
1772457157148200700,2.00420068359375,-0.996490478515625,0.022003173828125,0.0130157470703125
1772457157158218800,2.01421875,-0.9959716796875,0.0215911865234375,0.0120849609375
1772457157168236800,2.02423681640625,-0.995513916015625,0.0209503173828125,0.01300048828125
1772457157178256000,2.034255859375,-0.9958343505859375,0.021942138671875,0.0133209228515625
1772457157188274000,2.04427392578125,-0.996185302734375,0.0234375,0.0129852294921875
1772457157198292700,2.054292724609375,-0.9951629638671875,0.0235137939453125,0.0117340087890625
1772457157208310800,2.064310791015625,-0.9951629638671875,0.023345947265625,0.0130157470703125
1772457157218328800,2.074328857421875,-0.9939117431640625,0.02484130859375,0.01324462890625
1772457157228348000,2.084347900390625,-0.9948272705078125,0.02227783203125,0.0143890380859375
1772457157238366000,2.094365966796875,-0.9958038330078125,0.022857666015625,0.0128631591796875
1772457157248384800,2.104384765625,-0.9963836669921875,0.0211181640625,0.0126800537109375
1772457157258402800,2.11440283203125,-0.9972076416015625,0.0219879150390625,0.014404296875
1772457157268420900,2.1244208984375,-0.9948883056640625,0.02093505859375,0.01470947265625
1772457157278439700,2.134439697265625,-0.9945068359375,0.02215576171875,0.0121002197265625
1772457157288458000,2.1444580078125,-0.9949951171875,0.0216064453125,0.0126953125
1772457157298477000,2.15447705078125,-0.9954681396484375,0.0233612060546875,0.0130157470703125
1772457157308494800,2.164494873046875,-0.9942474365234375,0.0225830078125,0.015045166015625
1772457157318513000,2.174512939453125,-0.995819091796875,0.0222625732421875,0.0121917724609375
1772457157328531700,2.18453173828125,-0.9956512451171875,0.0217742919921875,0.012542724609375
1772457157338549800,2.1945498046875,-0.9963836669921875,0.02105712890625,0.0133819580078125
1772457157348568800,2.20456884765625,-0.994415283203125,0.0211334228515625,0.0110626220703125
1772457157358587000,2.2145869140625,-0.9952850341796875,0.022369384765625,0.013336181640625
1772457157368605000,2.22460498046875,-0.99420166015625,0.023712158203125,0.0139617919921875
1772457157378623700,2.234623779296875,-0.9940338134765625,0.024444580078125,0.0140380859375
1772457157388641800,2.244641845703125,-0.9951324462890625,0.02349853515625,0.0117950439453125
1772457157398660900,2.254660888671875,-0.99420166015625,0.021942138671875,0.0126800537109375
1772457157408678700,2.2646787109375,-0.99676513671875,0.0211944580078125,0.0114898681640625
1772457157418697000,2.274697021484375,-0.9966583251953125,0.01922607421875,0.012786865234375
1772457157428715800,2.2847158203125,-0.9966583251953125,0.020660400390625,0.01336669921875
1772457157438733800,2.29473388671875,-0.996337890625,0.022003173828125,0.01300048828125
1772457157448753000,2.3047529296875,-0.996490478515625,0.0242156982421875,0.0145721435546875
1772457157458770700,2.314770751953125,-0.995147705078125,0.023406982421875,0.0139617919921875
1772457157468788700,2.324788818359375,-0.9943084716796875,0.0240020751953125,0.014678955078125
1772457157478807800,2.334807861328125,-0.9951629638671875,0.020782470703125,0.01397705078125
1772457157488825900,2.344825927734375,-0.996002197265625,0.0218505859375,0.0117340087890625
1772457157498845000,2.354844970703125,-0.9952545166015625,0.022705078125,0.0125579833984375
1772457157508862700,2.36486279296875,-0.9957733154296875,0.0223541259765625,0.011810302734375
1772457157518880800,2.374880859375,-0.996246337890625,0.022857666015625,0.0133209228515625
1772457157528899800,2.38489990234375,-0.994903564453125,0.022552490234375,0.01171875
1772457157538918000,2.39491796875,-0.991424560546875,0.0233917236328125,0.01275634765625
1772457157548937000,2.40493701171875,-0.995758056640625,0.023834228515625,0.0135040283203125
1772457157558954800,2.414954833984375,-0.9959564208984375,0.0239105224609375,0.0132293701171875
1772457157568972800,2.424972900390625,-0.9973297119140625,0.0223236083984375,0.0137481689453125
1772457157578991900,2.434991943359375,-0.9951324462890625,0.022857666015625,0.0128173828125
1772457157589009700,2.445009765625,-0.995635986328125,0.0213775634765625,0.01153564453125
1772457157599028700,2.45502880859375,-0.9958953857421875,0.0217742919921875,0.01177978515625
1772457157609047000,2.465047119140625,-0.9962005615234375,0.0218505859375,0.01300048828125
1772457157619065900,2.47506591796875,-0.994476318359375,0.0247344970703125,0.0136566162109375
1772457157629084000,2.485083984375,-0.995819091796875,0.0242156982421875,0.0133514404296875
1772457157639101700,2.495101806640625,-0.9965057373046875,0.0236358642578125,0.0126953125
1772457157649120800,2.505120849609375,-0.9950103759765625,0.02215576171875,0.012786865234375
1772457157659138800,2.515138916015625,-0.9954833984375,0.0232696533203125,0.011962890625
1772457157669157600,2.52515771484375,-0.996795654296875,0.0222015380859375,0.0124969482421875
1772457157679176000,2.535176025390625,-0.9942169189453125,0.0211944580078125,0.012451171875
1772457157689193700,2.54519384765625,-0.9952545166015625,0.021942138671875,0.0133209228515625
1772457157699212800,2.555212890625,-0.9949188232421875,0.0233306884765625,0.0150909423828125
1772457157709230800,2.56523095703125,-0.99365234375,0.0239105224609375,0.012664794921875
1772457157719249700,2.575249755859375,-0.99591064453125,0.0246124267578125,0.012664794921875
1772457157729267700,2.585267822265625,-0.995574951171875,0.0231475830078125,0.0122222900390625
1772457157739285800,2.59528564453125,-0.994110107421875,0.02105712890625,0.0137176513671875
1772457157749304800,2.605304931640625,-0.995574951171875,0.02252197265625,0.0145416259765625
1772457157759323000,2.615322998046875,-0.9957122802734375,0.0226898193359375,0.0132598876953125
1772457157769341700,2.625341796875,-0.9954376220703125,0.0201873779296875,0.0125579833984375
1772457157779359700,2.63535986328125,-0.99530029296875,0.023162841796875,0.0146942138671875
1772457157789378000,2.6453779296875,-0.9939117431640625,0.0235748291015625,0.012969970703125
1772457157799396900,2.65539697265625,-0.993743896484375,0.021453857421875,0.01318359375
1772457157809415000,2.665414794921875,-0.994140625,0.0216522216796875,0.0138092041015625
1772457157819435000,2.67543505859375,-0.99786376953125,0.02166748046875,0.01226806640625
1772457157829453300,2.685453369140625,-0.9958953857421875,0.0218658447265625,0.0114593505859375
1772457157839471000,2.69547119140625,-0.9954681396484375,0.021026611328125,0.0145111083984375
1772457157849490200,2.705490234375,-0.9954986572265625,0.021636962890625,0.013702392578125
1772457157859508000,2.715508056640625,-0.995025634765625,0.0219573974609375,0.01275634765625
1772457157869527000,2.725527099609375,-0.9955596923828125,0.021942138671875,0.0136566162109375
1772457157879545000,2.735545166015625,-0.997283935546875,0.022308349609375,0.0146331787109375
1772457157889563100,2.745563232421875,-0.99609375,0.0223236083984375,0.013916015625
1772457157899582200,2.755582275390625,-0.996246337890625,0.023040771484375,0.013946533203125
1772457157909600300,2.765600341796875,-0.9960479736328125,0.021453857421875,0.0139007568359375
1772457157919619000,2.775619140625,-0.9937896728515625,0.0211944580078125,0.0135650634765625
1772457157929637000,2.78563720703125,-0.9944000244140625,0.02191162109375,0.0131072998046875
1772457157939655200,2.7956552734375,-0.9943084716796875,0.0225067138671875,0.011627197265625
1772457157949674200,2.80567431640625,-0.9944915771484375,0.0230712890625,0.011962890625
1772457157959692300,2.8156923828125,-0.99615478515625,0.0233612060546875,0.012237548828125
1772457157969711000,2.825711181640625,-0.995208740234375,0.0226593017578125,0.0136260986328125
1772457157979729200,2.835729248046875,-0.9951324462890625,0.022308349609375,0.01470947265625
1772457157989747000,2.845746826171875,-0.996337890625,0.0236663818359375,0.0155181884765625
1772457157999766000,2.85576611328125,-0.99615478515625,0.021881103515625,0.01226806640625
1772457158009784300,2.865784423828125,-0.99554443359375,0.0225982666015625,0.011627197265625
1772457158019803100,2.87580322265625,-0.9953460693359375,0.0229644775390625,0.01434326171875
1772457158029821200,2.8858212890625,-0.9948883056640625,0.0226898193359375,0.0150146484375
1772457158039839200,2.895839111328125,-0.995635986328125,0.0240631103515625,0.012725830078125
1772457158049858000,2.905858154296875,-0.9955291748046875,0.0245361328125,0.012481689453125
1772457158059876000,2.9158759765625,-0.9951934814453125,0.0223236083984375,0.01385498046875
1772457158069895200,2.925895263671875,-0.9935760498046875,0.0219879150390625,0.0124053955078125
1772457158079913200,2.935913330078125,-0.9962005615234375,0.022369384765625,0.01373291015625
1772457158089931300,2.94593115234375,-0.99566650390625,0.0215911865234375,0.012298583984375
1772457158099950000,2.9559501953125,-0.993560791015625,0.023193359375,0.0144500732421875
1772457158109968100,2.965968017578125,-0.9937896728515625,0.0242156982421875,0.01361083984375
1772457158119987200,2.9759873046875,-0.9960784912109375,0.02313232421875,0.0121307373046875
1772457158130005200,2.986005126953125,-0.996124267578125,0.023681640625,0.0129547119140625
1772457158140023300,2.996023193359375,-0.9952392578125,0.024200439453125,0.0140380859375
1772457158150042000,3.0060419921875,-0.9964141845703125,0.0222015380859375,0.012847900390625
1772457158160060200,3.01606005859375,-0.99560546875,0.024139404296875,0.012847900390625
1772457158170079200,3.026079345703125,-0.9959259033203125,0.0224456787109375,0.0135345458984375
1772457158180097000,3.036096923828125,-0.99578857421875,0.0213623046875,0.0131683349609375
1772457158190115300,3.046115234375,-0.9945220947265625,0.02239990234375,0.0112152099609375
1772457158200134100,3.056134033203125,-0.99591064453125,0.0230560302734375,0.0130157470703125
1772457158210152200,3.066152099609375,-0.996002197265625,0.0224456787109375,0.0126953125
1772457158220171300,3.076171142578125,-0.995635986328125,0.022857666015625,0.0122528076171875
1772457158230189000,3.08618896484375,-0.9969329833984375,0.0225830078125,0.0103302001953125
1772457158240207000,3.09620703125,-0.9969329833984375,0.0212860107421875,0.0134735107421875
1772457158250226200,3.10622607421875,-0.9950408935546875,0.0222625732421875,0.0133514404296875
1772457158260244200,3.116244140625,-0.996826171875,0.022064208984375,0.0120849609375
1772457158270263300,3.12626318359375,-0.996917724609375,0.0212554931640625,0.012664794921875
1772457158280281000,3.136281005859375,-0.9954071044921875,0.0235595703125,0.0128936767578125
1772457158290300200,3.146300048828125,-0.9961395263671875,0.02325439453125,0.012115478515625
1772457158300318200,3.156318115234375,-0.9940032958984375,0.0226287841796875,0.0119171142578125
1772457158310336000,3.1663359375,-0.9945220947265625,0.0222320556640625,0.0138702392578125
1772457158320355000,3.17635498046875,-0.9954376220703125,0.0227203369140625,0.0143280029296875
1772457158330373000,3.186373046875,-0.9956207275390625,0.023223876953125,0.0134124755859375
1772457158340392200,3.19639208984375,-0.9956512451171875,0.0203399658203125,0.0119476318359375
1772457158350410200,3.20641015625,-0.995849609375,0.0223388671875,0.0102081298828125
1772457158360428000,3.216427978515625,-0.9954071044921875,0.022735595703125,0.0121002197265625
1772457158370447000,3.226447021484375,-0.995941162109375,0.0214691162109375,0.0126190185546875
1772457158380465200,3.236465087890625,-0.99560546875,0.0222015380859375,0.0125274658203125
1772457158390484000,3.24648388671875,-0.995269775390625,0.0239410400390625,0.0128631591796875
1772457158400502300,3.256502197265625,-0.99420166015625,0.0223236083984375,0.0125274658203125
1772457158410520000,3.26652001953125,-0.9947052001953125,0.0223388671875,0.013275146484375
1772457158420539100,3.2765390625,-0.9965057373046875,0.02252197265625,0.0132293701171875
1772457158430557200,3.28655712890625,-0.9956512451171875,0.023406982421875,0.0116119384765625
1772457158440576000,3.296575927734375,-0.9944915771484375,0.0228118896484375,0.0125885009765625
1772457158450594300,3.30659423828125,-0.9953765869140625,0.0233001708984375,0.014404296875
1772457158460612000,3.316612060546875,-0.9957733154296875,0.021636962890625,0.012908935546875
1772457158470631200,3.326631103515625,-0.99560546875,0.0220489501953125,0.0140380859375
1772457158480649200,3.336649169921875,-0.9968109130859375,0.022857666015625,0.0140228271484375
1772457158490668000,3.34666796875,-0.9964752197265625,0.022735595703125,0.0145111083984375
1772457158500686000,3.35668603515625,-0.996429443359375,0.0233917236328125,0.01287841796875
1772457158510704000,3.3667041015625,-0.9966583251953125,0.0219268798828125,0.013671875
1772457158520723200,3.37672314453125,-0.9963226318359375,0.022003173828125,0.0135040283203125
1772457158530741200,3.3867412109375,-0.9955902099609375,0.02105712890625,0.0131072998046875
1772457158540760000,3.396760009765625,-0.99725341796875,0.021881103515625,0.013336181640625
1772457158550778000,3.406778076171875,-0.9957275390625,0.0231475830078125,0.0121002197265625
1772457158560796200,3.416796142578125,-0.99432373046875,0.0228271484375,0.01129150390625
1772457158570815000,3.42681494140625,-0.9942626953125,0.0215301513671875,0.0120391845703125
1772457158580833300,3.436833251953125,-0.9955291748046875,0.022003173828125,0.0132598876953125
1772457158590852400,3.446852294921875,-0.99560546875,0.0214385986328125,0.0139007568359375
1772457158600870100,3.4568701171875,-0.9962310791015625,0.021026611328125,0.0133209228515625
1772457158610888200,3.46688818359375,-0.9954376220703125,0.0225067138671875,0.0152587890625
1772457158620907000,3.476906982421875,-0.994842529296875,0.02154541015625,0.0132598876953125
1772457158630925000,3.486925048828125,-0.995697021484375,0.0244293212890625,0.0128326416015625
1772457158640944000,3.496944091796875,-0.995513916015625,0.0240325927734375,0.013916015625
1772457158650962200,3.506962158203125,-0.9958343505859375,0.02362060546875,0.013458251953125
1772457158660980200,3.516980224609375,-0.9948577880859375,0.02294921875,0.0139312744140625
1772457158670999000,3.5269990234375,-0.9940948486328125,0.021636962890625,0.0130615234375
1772457158681017000,3.53701708984375,-0.99481201171875,0.0217742919921875,0.0143585205078125
1772457158691036200,3.5470361328125,-0.995330810546875,0.0238189697265625,0.012481689453125
1772457158701054200,3.55705419921875,-0.9966583251953125,0.0224761962890625,0.012054443359375
1772457158711072300,3.567072265625,-0.9933319091796875,0.0233154296875,0.0116119384765625
1772457158721091000,3.577091064453125,-0.99365234375,0.0239715576171875,0.012725830078125
1772457158731109000,3.587109130859375,-0.995635986328125,0.0230255126953125,0.013824462890625
1772457158741128200,3.597128173828125,-0.9956817626953125,0.0239410400390625,0.01336669921875
1772457158751146000,3.60714599609375,-0.99383544921875,0.022796630859375,0.011810302734375
1772457158761164300,3.617164306640625,-0.9955596923828125,0.0221405029296875,0.0127410888671875
1772457158771183400,3.627183349609375,-0.995635986328125,0.0221710205078125,0.011871337890625
1772457158781201200,3.637201171875,-0.9944915771484375,0.0214691162109375,0.0106353759765625
1772457158791220200,3.64722021484375,-0.995941162109375,0.02203369140625,0.013702392578125
1772457158801238000,3.657238037109375,-0.994903564453125,0.02215576171875,0.0147247314453125
1772457158811256000,3.667256103515625,-0.9961090087890625,0.0218505859375,0.0118560791015625
1772457158821275000,3.67727490234375,-0.9952850341796875,0.023651123046875,0.0135955810546875
1772457158831292700,3.687292724609375,-0.995208740234375,0.0228424072265625,0.0133819580078125
1772457158841311700,3.697311767578125,-0.99322509765625,0.0216827392578125,0.012054443359375
1772457158851329500,3.70732958984375,-0.995361328125,0.0231475830078125,0.00909423828125
1772457158861347600,3.71734765625,-0.9965362548828125,0.0238037109375,0.0117034912109375
1772457158871366700,3.72736669921875,-0.9950714111328125,0.0229034423828125,0.0139617919921875
1772457158881384700,3.737384765625,-0.9948272705078125,0.0240631103515625,0.0133819580078125
1772457158891403800,3.74740380859375,-0.9939117431640625,0.021331787109375,0.01348876953125
1772457158901421600,3.757421630859375,-0.995208740234375,0.022979736328125,0.01422119140625
1772457158911439600,3.767439697265625,-0.995758056640625,0.022003173828125,0.01348876953125
1772457158921458700,3.777458740234375,-0.9951019287109375,0.0237579345703125,0.01226806640625
1772457158931476500,3.7874765625,-0.9958038330078125,0.02239990234375,0.0143280029296875
1772457158941495600,3.79749560546875,-0.9950714111328125,0.022735595703125,0.013824462890625
1772457158951513900,3.807513916015625,-0.9956207275390625,0.021270751953125,0.0133209228515625
1772457158961531600,3.81753173828125,-0.99554443359375,0.0214080810546875,0.0105133056640625
1772457158971550700,3.82755078125,-0.9951171875,0.02325439453125,0.013214111328125
1772457158981568500,3.837568603515625,-0.9968414306640625,0.023406982421875,0.0137786865234375
1772457158991587600,3.847587646484375,-0.9956207275390625,0.0231170654296875,0.0124359130859375
1772457159001605600,3.857605712890625,-0.9951324462890625,0.0229949951171875,0.012725830078125
1772457159011623700,3.867623779296875,-0.995849609375,0.0232696533203125,0.0134735107421875
1772457159021642800,3.877642822265625,-0.994842529296875,0.022705078125,0.012542724609375
1772457159031660500,3.88766064453125,-0.99481201171875,0.0229339599609375,0.0126800537109375
1772457159041679600,3.8976796875,-0.99560546875,0.0230712890625,0.0137481689453125
1772457159051697700,3.90769775390625,-0.9947662353515625,0.0222625732421875,0.0146331787109375
1772457159061715700,3.9177158203125,-0.9944305419921875,0.0234375,0.0114593505859375
1772457159071734800,3.92773486328125,-0.995758056640625,0.0222930908203125,0.0121307373046875
1772457159081752600,3.937752685546875,-0.99530029296875,0.022216796875,0.0116424560546875
1772457159091771600,3.947771728515625,-0.9949493408203125,0.0219879150390625,0.012939453125
1772457159101789700,3.957789794921875,-0.9950408935546875,0.02191162109375,0.012786865234375
1772457159111808500,3.96780859375,-0.995208740234375,0.023345947265625,0.0106353759765625
1772457159121826600,3.97782666015625,-0.994140625,0.0226593017578125,0.0129852294921875
1772457159131844900,3.987844970703125,-0.994415283203125,0.02294921875,0.0136871337890625
1772457159141863700,3.99786376953125,-0.9950408935546875,0.024810791015625,0.0127716064453125
1772457159151881700,4.0078818359375,-0.99652099609375,0.022125244140625,0.0127716064453125
1772457159161899500,4.0178994140625,-0.995635986328125,0.0219573974609375,0.0144195556640625
1772457159171918600,4.027918701171875,-0.9949951171875,0.02325439453125,0.012298583984375
1772457159181936600,4.0379365234375,-0.99664306640625,0.021820068359375,0.013092041015625
1772457159191955500,4.04795556640625,-0.99603271484375,0.0227813720703125,0.0158538818359375
1772457159201973800,4.057973876953125,-0.9955291748046875,0.0221710205078125,0.013153076171875
1772457159211992800,4.067992919921875,-0.9958953857421875,0.022979736328125,0.011810302734375
1772457159222010600,4.0780107421875,-0.9955596923828125,0.024261474609375,0.0127716064453125
1772457159232028700,4.088028564453125,-0.9952850341796875,0.023101806640625,0.0128631591796875
1772457159242047500,4.098047607421875,-0.99517822265625,0.022674560546875,0.0131378173828125
1772457159252065500,4.1080654296875,-0.99542236328125,0.0229339599609375,0.011962890625
1772457159262084600,4.118084716796875,-0.99468994140625,0.0216217041015625,0.0134735107421875
1772457159272102700,4.1281025390625,-0.995574951171875,0.0226593017578125,0.0140380859375
1772457159282120700,4.13812060546875,-0.9953765869140625,0.0234222412109375,0.0121307373046875
1772457159292139800,4.148139892578125,-0.9950103759765625,0.023406982421875,0.0124053955078125
1772457159302157600,4.158157470703125,-0.9951934814453125,0.0226593017578125,0.0131683349609375
1772457159312176600,4.1681767578125,-0.995330810546875,0.02301025390625,0.01171875
1772457159322194700,4.178194580078125,-0.9962921142578125,0.0228424072265625,0.0133056640625
1772457159332212700,4.188212646484375,-0.99530029296875,0.0230712890625,0.0119781494140625
1772457159342231800,4.198231689453125,-0.994781494140625,0.0228118896484375,0.014495849609375
1772457159352249600,4.20824951171875,-0.994598388671875,0.0222930908203125,0.01275634765625
1772457159362268700,4.2182685546875,-0.9954986572265625,0.0225067138671875,0.01239013671875
1772457159372286500,4.228286376953125,-0.9952545166015625,0.021881103515625,0.0124053955078125
1772457159382304800,4.2383046875,-0.9949951171875,0.0222015380859375,0.0117950439453125
1772457159392323800,4.24832373046875,-0.9967041015625,0.024200439453125,0.01263427734375
1772457159402341600,4.258341552734375,-0.994354248046875,0.0231781005859375,0.0137176513671875
1772457159412360700,4.268360595703125,-0.9965057373046875,0.0232696533203125,0.013336181640625
1772457159422378500,4.27837841796875,-0.996978759765625,0.0224609375,0.0127105712890625
1772457159432396500,4.288396484375,-0.9945831298828125,0.0234375,0.012115478515625
1772457159442415600,4.29841552734375,-0.99615478515625,0.02166748046875,0.01348876953125
1772457159452433700,4.30843359375,-0.9961700439453125,0.0222930908203125,0.013397216796875
1772457159462452700,4.31845263671875,-0.9947662353515625,0.022369384765625,0.0124969482421875
1772457159472470800,4.328470703125,-0.9943389892578125,0.0218505859375,0.0128021240234375
1772457159482488600,4.338488525390625,-0.99517822265625,0.0220489501953125,0.0127105712890625
1772457159492507600,4.348507568359375,-0.9943389892578125,0.0225067138671875,0.0121612548828125
1772457159502525700,4.358525634765625,-0.9959259033203125,0.0222015380859375,0.01129150390625
1772457159512544500,4.36854443359375,-0.9967193603515625,0.0210723876953125,0.0111236572265625
1772457159522562800,4.378562744140625,-0.99554443359375,0.0230560302734375,0.011810302734375
1772457159532580600,4.38858056640625,-0.9949798583984375,0.0232391357421875,0.0132904052734375
1772457159542599700,4.398599609375,-0.995635986328125,0.0237579345703125,0.0123748779296875
1772457159552617500,4.408617431640625,-0.99530029296875,0.023529052734375,0.0131378173828125
1772457159562636500,4.418636474609375,-0.99468994140625,0.0229339599609375,0.012359619140625
1772457159572654800,4.42865478515625,-0.9947509765625,0.022552490234375,0.0141143798828125
1772457159582672600,4.438672607421875,-0.995330810546875,0.022247314453125,0.0125732421875
1772457159592691700,4.448691650390625,-0.9958343505859375,0.0229034423828125,0.01226806640625
1772457159602709500,4.45870947265625,-0.99554443359375,0.0227203369140625,0.0153961181640625
1772457159612728600,4.468728515625,-0.9960174560546875,0.0222320556640625,0.01300048828125
1772457159622746600,4.47874658203125,-0.9968109130859375,0.0220794677734375,0.0144805908203125
1772457159632764700,4.4887646484375,-0.9952392578125,0.0233001708984375,0.0132598876953125
1772457159642783700,4.49878369140625,-0.9950714111328125,0.021453857421875,0.01385498046875
1772457159652801800,4.5088017578125,-0.9943084716796875,0.0229339599609375,0.0142669677734375
1772457159662820600,4.518820556640625,-0.9958953857421875,0.02313232421875,0.01263427734375
1772457159672838700,4.528838623046875,-0.99591064453125,0.02362060546875,0.0147552490234375
1772457159682856400,4.5388564453125,-0.99713134765625,0.023193359375,0.014129638671875
1772457159692875500,4.54887548828125,-0.996124267578125,0.021942138671875,0.0141143798828125
1772457159702893800,4.558893798828125,-0.9946746826171875,0.021331787109375,0.0130157470703125
1772457159712912600,4.56891259765625,-0.9945220947265625,0.0218048095703125,0.013031005859375
1772457159722930700,4.5789306640625,-0.9958038330078125,0.023223876953125,0.012939453125
1772457159732948500,4.588948486328125,-0.996185302734375,0.021697998046875,0.0128631591796875
1772457159742967600,4.598967529296875,-0.99591064453125,0.02313232421875,0.01251220703125
1772457159752985600,4.608985595703125,-0.9961700439453125,0.0222625732421875,0.013092041015625
1772457159763004400,4.61900439453125,-0.9965972900390625,0.021636962890625,0.0123138427734375
1772457159773022700,4.629022705078125,-0.995269775390625,0.021728515625,0.0126495361328125
1772457159783040800,4.639040771484375,-0.9954376220703125,0.0222930908203125,0.012603759765625
1772457159793059600,4.6490595703125,-0.9959716796875,0.022216796875,0.01361083984375
1772457159803077600,4.65907763671875,-0.9970550537109375,0.0229644775390625,0.01397705078125
1772457159813096700,4.6690966796875,-0.99603271484375,0.0234832763671875,0.0124664306640625
1772457159823114800,4.67911474609375,-0.9950103759765625,0.02288818359375,0.01251220703125
1772457159833132500,4.689132568359375,-0.995819091796875,0.022064208984375,0.012786865234375
1772457159843151600,4.699151611328125,-0.9954986572265625,0.0212860107421875,0.0113372802734375
1772457159853169700,4.709169677734375,-0.9956207275390625,0.0225067138671875,0.0128173828125
1772457159863188500,4.7191884765625,-0.9944610595703125,0.02374267578125,0.0119781494140625
1772457159873206500,4.72920654296875,-0.99517822265625,0.02105712890625,0.0124053955078125
1772457159883224600,4.739224609375,-0.9944610595703125,0.0206451416015625,0.0137939453125
1772457159893243600,4.74924365234375,-0.99615478515625,0.0218353271484375,0.0122222900390625
1772457159903261700,4.75926171875,-0.9961395263671875,0.0246734619140625,0.0124969482421875
1772457159913280500,4.769280517578125,-0.995025634765625,0.023773193359375,0.0121002197265625
1772457159923298600,4.779298583984375,-0.994781494140625,0.02288818359375,0.0123291015625
1772457159933316400,4.78931640625,-0.993011474609375,0.023193359375,0.013946533203125
1772457159943335400,4.79933544921875,-0.99462890625,0.0230865478515625,0.013641357421875
1772457159953353700,4.809353759765625,-0.9969024658203125,0.022979736328125,0.0120391845703125
1772457159963372500,4.81937255859375,-0.9951629638671875,0.0228118896484375,0.0125274658203125
1772457159973390600,4.829390625,-0.993804931640625,0.0221099853515625,0.013275146484375
1772457159983408400,4.839408447265625,-0.996673583984375,0.0210723876953125,0.01318359375
1772457159993427500,4.849427490234375,-0.996917724609375,0.0239410400390625,0.0128936767578125
1772457160003445500,4.859445556640625,-0.9948577880859375,0.0223541259765625,0.0126495361328125
1772457160013464600,4.869464599609375,-0.99749755859375,0.0235748291015625,0.014434814453125
1772457160023482600,4.879482666015625,-0.9962158203125,0.021392822265625,0.0125274658203125
1772457160033500700,4.889500732421875,-0.9951171875,0.0223388671875,0.011077880859375
1772457160043519500,4.89951953125,-0.995849609375,0.0234527587890625,0.0149383544921875
1772457160053537500,4.90953759765625,-0.996063232421875,0.02301025390625,0.0140838623046875
1772457160063556600,4.919556640625,-0.996002197265625,0.0228271484375,0.0121917724609375
1772457160073574700,4.92957470703125,-0.9943695068359375,0.022491455078125,0.0145721435546875
1772457160083592700,4.9395927734375,-0.993682861328125,0.0216827392578125,0.012786865234375
1772457160093611500,4.949611572265625,-0.9953460693359375,0.0222015380859375,0.013153076171875
1772457160103629600,4.959629638671875,-0.9951171875,0.0227203369140625,0.013458251953125
1772457160113648600,4.969648681640625,-0.994476318359375,0.0212249755859375,0.0155029296875
1772457160123666400,4.97966650390625,-0.9953155517578125,0.021636962890625,0.0140838623046875
1772457160133684700,4.989684814453125,-0.9963226318359375,0.0243072509765625,0.013519287109375
1772457160143703600,4.99970361328125,-0.9956817626953125,0.02362060546875,0.013458251953125
1772457160153721600,5.0097216796875,-0.994049072265625,0.021697998046875,0.0132598876953125
1772457160163740700,5.01974072265625,-0.99517822265625,0.0223541259765625,0.01397705078125
1772457160173758500,5.029758544921875,-0.995819091796875,0.0222320556640625,0.0118408203125
1772457160183776500,5.039776611328125,-0.995513916015625,0.0233001708984375,0.0135040283203125
1772457160193795600,5.049795654296875,-0.99468994140625,0.0226898193359375,0.013885498046875
1772457160203813600,5.059813720703125,-0.996551513671875,0.0223541259765625,0.0131988525390625
1772457160213832700,5.069832763671875,-0.9938812255859375,0.0223541259765625,0.0140533447265625
1772457160223850500,5.0798505859375,-0.994354248046875,0.02197265625,0.0123138427734375
1772457160233868500,5.08986865234375,-0.9949188232421875,0.0226287841796875,0.0132904052734375
1772457160243887600,5.0998876953125,-0.996368408203125,0.0218963623046875,0.0130462646484375
1772457160253905400,5.109905517578125,-0.996368408203125,0.0217437744140625,0.01287841796875
1772457160263924500,5.119924560546875,-0.99395751953125,0.022430419921875,0.0135498046875
1772457160273942500,5.129942626953125,-0.9932098388671875,0.0229644775390625,0.0134124755859375
1772457160283960600,5.139960693359375,-0.9962310791015625,0.0228118896484375,0.012054443359375
1772457160293979600,5.149979736328125,-0.9965362548828125,0.0223846435546875,0.012908935546875
1772457160303997400,5.15999755859375,-0.9948272705078125,0.021942138671875,0.0135498046875
1772457160314016500,5.1700166015625,-0.99530029296875,0.0238189697265625,0.012908935546875
1772457160324034600,5.18003466796875,-0.995758056640625,0.022613525390625,0.0121002197265625
1772457160334052600,5.190052490234375,-0.9947357177734375,0.0225982666015625,0.012786865234375
1772457160344071700,5.20007177734375,-0.9957275390625,0.0231170654296875,0.0137786865234375
1772457160354089500,5.21008935546875,-0.9961700439453125,0.0211944580078125,0.0121307373046875
1772457160364108500,5.220108642578125,-0.99444580078125,0.02374267578125,0.011383056640625
1772457160374126600,5.230126708984375,-0.9951171875,0.022674560546875,0.0133514404296875
1772457160384144600,5.24014453125,-0.99542236328125,0.022857666015625,0.0128936767578125
1772457160394163700,5.250163818359375,-0.996185302734375,0.022796630859375,0.0133209228515625
1772457160404181500,5.260181396484375,-0.9945220947265625,0.022613525390625,0.013519287109375
1772457160414200600,5.27020068359375,-0.9953460693359375,0.0226287841796875,0.0130615234375
1772457160424218600,5.280218505859375,-0.996368408203125,0.0216522216796875,0.01312255859375
1772457160434237400,5.290237548828125,-0.99664306640625,0.0219879150390625,0.014068603515625
1772457160444255500,5.30025537109375,-0.99468994140625,0.0224609375,0.0137786865234375
1772457160454273500,5.3102734375,-0.9937591552734375,0.0226898193359375,0.0134124755859375
1772457160464292600,5.320292724609375,-0.9966583251953125,0.021392822265625,0.0126495361328125
1772457160474310700,5.330310546875,-0.995086669921875,0.0236663818359375,0.0139923095703125
1772457160484328400,5.340328369140625,-0.9947509765625,0.023193359375,0.0126190185546875
1772457160494347500,5.350347412109375,-0.9948272705078125,0.0218505859375,0.0118865966796875
1772457160504365600,5.360365478515625,-0.9965972900390625,0.0233306884765625,0.0146026611328125
1772457160514384400,5.37038427734375,-0.9963531494140625,0.0230712890625,0.01373291015625
1772457160524402700,5.380402587890625,-0.9944305419921875,0.022979736328125,0.013946533203125
1772457160534421800,5.390421875,-0.9949951171875,0.02410888671875,0.0121002197265625
1772457160544439600,5.400439453125,-0.99530029296875,0.0230560302734375,0.0117645263671875
1772457160554457600,5.41045751953125,-0.994171142578125,0.021331787109375,0.013702392578125
1772457160564476400,5.420476318359375,-0.99432373046875,0.0210723876953125,0.0123443603515625
1772457160574494700,5.43049462890625,-0.9950408935546875,0.0207977294921875,0.0114593505859375
1772457160584513800,5.440513671875,-0.9944000244140625,0.0212860107421875,0.011322021484375
1772457160594531600,5.450531494140625,-0.9940338134765625,0.022735595703125,0.0139007568359375
1772457160604549600,5.460549560546875,-0.99530029296875,0.022613525390625,0.01470947265625
1772457160614568400,5.470568359375,-0.9940338134765625,0.0222320556640625,0.0143585205078125
1772457160624586500,5.48058642578125,-0.994384765625,0.0232696533203125,0.0127410888671875
1772457160634605600,5.49060546875,-0.996185302734375,0.02362060546875,0.0115509033203125
1772457160644623600,5.50062353515625,-0.9956512451171875,0.0218353271484375,0.0135498046875
1772457160654641700,5.5106416015625,-0.9965972900390625,0.022064208984375,0.013580322265625
1772457160664660500,5.520660400390625,-0.9967041015625,0.023040771484375,0.0126800537109375
1772457160674678500,5.530678466796875,-0.994598388671875,0.02252197265625,0.0126953125
1772457160684697600,5.540697509765625,-0.9943084716796875,0.0244140625,0.0118560791015625
1772457160694715400,5.55071533203125,-0.9945220947265625,0.0222625732421875,0.013763427734375
1772457160704733700,5.560733642578125,-0.995208740234375,0.0211029052734375,0.013031005859375
1772457160714752800,5.570752685546875,-0.9951019287109375,0.0224609375,0.01226806640625
1772457160724770600,5.5807705078125,-0.9960479736328125,0.0230560302734375,0.0126800537109375
1772457160734789600,5.59078955078125,-0.995758056640625,0.0225372314453125,0.01287841796875
1772457160744807400,5.600807373046875,-0.9949951171875,0.0228729248046875,0.014739990234375
1772457160754825500,5.610825439453125,-0.9949951171875,0.02276611328125,0.013641357421875
1772457160764844500,5.620844482421875,-0.9957427978515625,0.0240936279296875,0.0134124755859375
1772457160774862600,5.630862548828125,-0.9954376220703125,0.02191162109375,0.0160369873046875
1772457160784881700,5.640881591796875,-0.9962921142578125,0.0217132568359375,0.013916015625
1772457160794899500,5.6508994140625,-0.9958038330078125,0.021209716796875,0.0131988525390625
1772457160804917500,5.66091748046875,-0.995758056640625,0.0219879150390625,0.0132904052734375
1772457160814936600,5.6709365234375,-0.9956207275390625,0.022552490234375,0.0123748779296875
1772457160824954600,5.68095458984375,-0.99566650390625,0.0231170654296875,0.0131683349609375
1772457160834973700,5.6909736328125,-0.994873046875,0.02154541015625,0.0129547119140625
1772457160844991700,5.70099169921875,-0.9944000244140625,0.0222320556640625,0.0117950439453125
1772457160855009500,5.711009521484375,-0.9960479736328125,0.0235137939453125,0.0135345458984375
1772457160865028600,5.721028564453125,-0.997100830078125,0.0214691162109375,0.01275634765625
1772457160875046400,5.73104638671875,-0.995880126953125,0.022491455078125,0.010833740234375
1772457160885065500,5.7410654296875,-0.9945068359375,0.0221099853515625,0.01214599609375
1772457160895083800,5.751083740234375,-0.99578857421875,0.0227813720703125,0.0127105712890625
1772457160905101600,5.7611015625,-0.9969024658203125,0.0222930908203125,0.013031005859375
1772457160915120600,5.77112060546875,-0.995452880859375,0.022705078125,0.01239013671875
1772457160925138400,5.781138427734375,-0.9945220947265625,0.0222625732421875,0.0123138427734375
1772457160935157500,5.791157470703125,-0.994903564453125,0.022369384765625,0.01312255859375
1772457160945175600,5.801175537109375,-0.9955291748046875,0.023468017578125,0.0124969482421875
1772457160955193600,5.811193603515625,-0.994415283203125,0.0223236083984375,0.01348876953125
1772457160965211600,5.821211669921875,-0.9940338134765625,0.022918701171875,0.0142364501953125
1772457160975229400,5.8312294921875,-0.9953765869140625,0.0227203369140625,0.013031005859375
1772457160985248500,5.84124853515625,-0.9946136474609375,0.022979736328125,0.010772705078125
1772457160995266600,5.8512666015625,-0.9954376220703125,0.0225982666015625,0.01239013671875
1772457161005284600,5.86128466796875,-0.9952850341796875,0.0232696533203125,0.0143585205078125
1772457161015303700,5.8713037109375,-0.9945220947265625,0.021820068359375,0.0131378173828125
1772457161025321500,5.881321533203125,-0.99615478515625,0.02154541015625,0.0134124755859375
1772457161035340500,5.891340576171875,-0.995025634765625,0.022369384765625,0.012969970703125
1772457161045358600,5.901358642578125,-0.9943084716796875,0.022735595703125,0.0124969482421875
1772457161055377400,5.91137744140625,-0.995574951171875,0.02154541015625,0.0123748779296875
1772457161065395700,5.921395751953125,-0.9947052001953125,0.0217132568359375,0.013214111328125
1772457161075413500,5.93141357421875,-0.994354248046875,0.0218048095703125,0.0123291015625
1772457161085432600,5.9414326171875,-0.99578857421875,0.022552490234375,0.0115509033203125
1772457161095450600,5.95145068359375,-0.9944915771484375,0.022979736328125,0.0115203857421875
1772457161105469400,5.961469482421875,-0.9952239990234375,0.0237274169921875,0.0142059326171875
1772457161115487500,5.971487548828125,-0.9943695068359375,0.023895263671875,0.0117645263671875
1772457161125505800,5.981505859375,-0.99560546875,0.0226898193359375,0.012176513671875
1772457161135524600,5.991524658203125,-0.99566650390625,0.022369384765625,0.01275634765625
1772457161145542700,6.001542724609375,-0.9956207275390625,0.022705078125,0.013031005859375
1772457161155561700,6.011561767578125,-0.9955902099609375,0.022979736328125,0.013092041015625
1772457161165579500,6.02157958984375,-0.994903564453125,0.022552490234375,0.0137786865234375
1772457161175597600,6.03159765625,-0.9942779541015625,0.0219268798828125,0.0133209228515625
1772457161185616400,6.041616455078125,-0.9948577880859375,0.022247314453125,0.0113372802734375
1772457161195634700,6.051634765625,-0.9940032958984375,0.0224456787109375,0.0141448974609375
1772457161205653800,6.06165380859375,-0.9963226318359375,0.0233612060546875,0.0136566162109375
1772457161215671600,6.071671630859375,-0.9966278076171875,0.023223876953125,0.0137786865234375
1772457161225689600,6.081689697265625,-0.9947357177734375,0.023712158203125,0.0126800537109375
1772457161235708400,6.09170849609375,-0.9958343505859375,0.0224151611328125,0.0128173828125
1772457161245726500,6.1017265625,-0.9958343505859375,0.0233154296875,0.0142822265625
1772457161255745500,6.11174560546875,-0.9950714111328125,0.0220947265625,0.014190673828125
1772457161265763600,6.121763671875,-0.995147705078125,0.0221710205078125,0.0126495361328125
1772457161275781600,6.13178173828125,-0.9956207275390625,0.02239990234375,0.0126190185546875
1772457161285800400,6.141800537109375,-0.9964141845703125,0.02178955078125,0.013427734375
1772457161295818500,6.151818603515625,-0.9964599609375,0.02215576171875,0.0114288330078125
1772457161305837600,6.161837646484375,-0.9964599609375,0.021240234375,0.0137176513671875
1772457161315855600,6.171855712890625,-0.99566650390625,0.0214080810546875,0.0149078369140625
1772457161325873700,6.181873779296875,-0.9958343505859375,0.02166748046875,0.0125885009765625
1772457161335892700,6.191892822265625,-0.99676513671875,0.0224151611328125,0.0120849609375
1772457161345910500,6.20191064453125,-0.994384765625,0.0228729248046875,0.0141143798828125
1772457161355929600,6.2119296875,-0.995147705078125,0.022613525390625,0.0142669677734375
1772457161365947400,6.221947509765625,-0.9960479736328125,0.022491455078125,0.012908935546875
1772457161375965700,6.231965576171875,-0.9957122802734375,0.0241241455078125,0.010986328125
1772457161385984800,6.24198486328125,-0.99481201171875,0.0225982666015625,0.0124969482421875
1772457161396002600,6.25200244140625,-0.9952392578125,0.023193359375,0.013031005859375
1772457161406021600,6.262021728515625,-0.9955291748046875,0.02325439453125,0.013397216796875
1772457161416039400,6.272039306640625,-0.99505615234375,0.0228424072265625,0.0135650634765625
1772457161426057500,6.282057373046875,-0.9957122802734375,0.022491455078125,0.0124969482421875
1772457161436076500,6.29207666015625,-0.9963836669921875,0.0229339599609375,0.01324462890625
1772457161446094600,6.302094482421875,-0.995697021484375,0.02239990234375,0.0119171142578125
1772457161456113700,6.31211376953125,-0.99652099609375,0.0243988037109375,0.011627197265625
1772457161466131500,6.32213134765625,-0.995269775390625,0.02337646484375,0.012603759765625
1772457161476149500,6.3321494140625,-0.9946746826171875,0.022857666015625,0.0120086669921875
1772457161486168600,6.34216845703125,-0.9945068359375,0.0223236083984375,0.0121307373046875
1772457161496186400,6.352186279296875,-0.995849609375,0.0229339599609375,0.01214599609375
1772457161506205400,6.362205322265625,-0.9966278076171875,0.02191162109375,0.0117034912109375
1772457161516223700,6.3722236328125,-0.993927001953125,0.0218048095703125,0.0127410888671875
1772457161526241500,6.382241455078125,-0.9959869384765625,0.0219573974609375,0.0112152099609375
1772457161536260600,6.392260498046875,-0.99456787109375,0.0205841064453125,0.01275634765625
1772457161546278400,6.4022783203125,-0.9948272705078125,0.022705078125,0.0132598876953125
1772457161556297500,6.41229736328125,-0.9956512451171875,0.0233001708984375,0.0126495361328125
1772457161566315800,6.422315673828125,-0.9964752197265625,0.02288818359375,0.01251220703125
1772457161576333600,6.43233349609375,-0.996002197265625,0.0228424072265625,0.012969970703125
1772457161586352600,6.4423525390625,-0.9944610595703125,0.022125244140625,0.0135498046875
1772457161596370400,6.452370361328125,-0.995697021484375,0.0218505859375,0.013031005859375
1772457161606389500,6.462389404296875,-0.9939117431640625,0.021331787109375,0.0112762451171875
1772457161616407600,6.472407470703125,-0.995086669921875,0.023651123046875,0.012298583984375
1772457161626425600,6.482425537109375,-0.99530029296875,0.02374267578125,0.0134124755859375
1772457161636444700,6.492444580078125,-0.9947357177734375,0.0223541259765625,0.012786865234375
1772457161646462700,6.502462646484375,-0.996063232421875,0.0228118896484375,0.0146484375
1772457161656481500,6.5124814453125,-0.995025634765625,0.0231781005859375,0.0134735107421875
1772457161666499600,6.52249951171875,-0.994720458984375,0.0231170654296875,0.0136871337890625
1772457161676517400,6.532517333984375,-0.995086669921875,0.0219573974609375,0.01348876953125
1772457161686536400,6.542536376953125,-0.99505615234375,0.02423095703125,0.013397216796875
1772457161696554800,6.5525546875,-0.99578857421875,0.022369384765625,0.0138397216796875
1772457161706573600,6.562573486328125,-0.9959869384765625,0.02301025390625,0.013397216796875
1772457161716591600,6.572591552734375,-0.9947509765625,0.0226898193359375,0.0133819580078125
1772457161726609400,6.582609375,-0.9944000244140625,0.022613525390625,0.01422119140625
1772457161736628500,6.59262841796875,-0.99481201171875,0.0230865478515625,0.0130157470703125
1772457161746646500,6.602646484375,-0.994720458984375,0.022003173828125,0.0125732421875
1772457161756665300,6.612665283203125,-0.9950103759765625,0.0233612060546875,0.0116729736328125
1772457161766683600,6.62268359375,-0.9949798583984375,0.021820068359375,0.0130767822265625
1772457161776701400,6.632701416015625,-0.99627685546875,0.0235137939453125,0.0120697021484375
1772457161786720500,6.642720458984375,-0.9960479736328125,0.023284912109375,0.012451171875
1772457161796738600,6.652738525390625,-0.99456787109375,0.0224151611328125,0.013092041015625
1772457161806757400,6.66275732421875,-0.9954681396484375,0.0235137939453125,0.014007568359375
1772457161816775700,6.672775634765625,-0.995758056640625,0.0220794677734375,0.0127716064453125
1772457161826793700,6.682793701171875,-0.9953155517578125,0.0220947265625,0.0127716064453125
1772457161836812800,6.692812744140625,-0.9957122802734375,0.0219573974609375,0.0147857666015625
1772457161846830600,6.70283056640625,-0.9949188232421875,0.0238037109375,0.01336669921875
1772457161856849700,6.712849609375,-0.995452880859375,0.0238494873046875,0.01300048828125
1772457161866867500,6.722867431640625,-0.9944610595703125,0.0221710205078125,0.0138397216796875
1772457161876885800,6.7328857421875,-0.9957733154296875,0.0220489501953125,0.0142364501953125
1772457161886904800,6.74290478515625,-0.99554443359375,0.023590087890625,0.0141448974609375
1772457161896922600,6.752922607421875,-0.994049072265625,0.02294921875,0.0125579833984375
1772457161906941700,6.762941650390625,-0.99517822265625,0.0233306884765625,0.01300048828125
1772457161916959700,6.772959716796875,-0.99554443359375,0.022613525390625,0.0123138427734375
1772457161926977500,6.7829775390625,-0.9950714111328125,0.0235137939453125,0.0135955810546875
1772457161936996600,6.79299658203125,-0.9944915771484375,0.0211944580078125,0.0144195556640625
1772457161947014700,6.8030146484375,-0.9949798583984375,0.0217742919921875,0.0140838623046875
1772457161957033700,6.81303369140625,-0.99493408203125,0.023712158203125,0.0126495361328125
1772457161967051800,6.8230517578125,-0.9970245361328125,0.022125244140625,0.0115203857421875
1772457161977070600,6.833070556640625,-0.996063232421875,0.0221710205078125,0.0131683349609375
1772457161987088600,6.843088623046875,-0.99468994140625,0.022186279296875,0.0115966796875
1772457161997106400,6.8531064453125,-0.9957122802734375,0.0223541259765625,0.01416015625
1772457162007125500,6.86312548828125,-0.9946441650390625,0.023590087890625,0.01361083984375
1772457162017143800,6.873143798828125,-0.996612548828125,0.0222015380859375,0.013885498046875
1772457162027162600,6.88316259765625,-0.99627685546875,0.0225982666015625,0.0128021240234375
1772457162037180700,6.8931806640625,-0.9943695068359375,0.0229034423828125,0.013275146484375
1772457162047198500,6.903198486328125,-0.99346923828125,0.024169921875,0.0146636962890625
1772457162057217500,6.913217529296875,-0.996307373046875,0.02288818359375,0.0122833251953125
1772457162067235600,6.923235595703125,-0.9956512451171875,0.022186279296875,0.013916015625
1772457162077254700,6.933254638671875,-0.994049072265625,0.0225830078125,0.01336669921875
1772457162087272700,6.943272705078125,-0.996124267578125,0.021820068359375,0.013458251953125
1772457162097290800,6.953290771484375,-0.99560546875,0.0218353271484375,0.013397216796875
1772457162107309600,6.9633095703125,-0.99359130859375,0.022735595703125,0.0128326416015625
1772457162117327600,6.97332763671875,-0.9963531494140625,0.0223846435546875,0.014007568359375
1772457162127346700,6.9833466796875,-0.995574951171875,0.023193359375,0.013702392578125
1772457162137364700,6.99336474609375,-0.9959564208984375,0.0231170654296875,0.012451171875
1772457162147382800,7.0033828125,-0.99688720703125,0.0225677490234375,0.0143280029296875
1772457162157401600,7.013401611328125,-0.9951171875,0.0218353271484375,0.0124359130859375
1772457162167419600,7.023419677734375,-0.9949188232421875,0.022705078125,0.0139312744140625
1772457162177438700,7.033438720703125,-0.9954833984375,0.0226898193359375,0.013092041015625
1772457162187456500,7.04345654296875,-0.9950408935546875,0.0224761962890625,0.0130767822265625
1772457162197474800,7.053474853515625,-0.995147705078125,0.023193359375,0.0131683349609375
1772457162207493600,7.06349365234375,-0.995513916015625,0.0229339599609375,0.01171875
1772457162217511700,7.07351171875,-0.995513916015625,0.0217742919921875,0.0107574462890625
1772457162227530800,7.08353076171875,-0.9933013916015625,0.022308349609375,0.01177978515625
1772457162237548500,7.093548583984375,-0.9953765869140625,0.02252197265625,0.013824462890625
1772457162247566600,7.103566650390625,-0.9956512451171875,0.0227508544921875,0.0123443603515625
1772457162257585700,7.113585693359375,-0.995452880859375,0.022125244140625,0.01275634765625
1772457162267603700,7.123603759765625,-0.995330810546875,0.02301025390625,0.013641357421875
1772457162277622800,7.133622802734375,-0.995361328125,0.0243682861328125,0.0137481689453125
1772457162287640600,7.143640625,-0.9954986572265625,0.0208740234375,0.013092041015625
1772457162297658600,7.15365869140625,-0.9957733154296875,0.022857666015625,0.0121307373046875
1772457162307677700,7.163677734375,-0.995269775390625,0.023284912109375,0.0145111083984375
1772457162317695700,7.17369580078125,-0.9938507080078125,0.022430419921875,0.01202392578125
1772457162327714600,7.183714599609375,-0.99566650390625,0.0242156982421875,0.0121002197265625
1772457162337732600,7.193732666015625,-0.9947662353515625,0.02294921875,0.01123046875
1772457162347750700,7.203750732421875,-0.9954986572265625,0.0220184326171875,0.0135345458984375
1772457162357769700,7.213769775390625,-0.9938201904296875,0.0221405029296875,0.0118865966796875
1772457162367787500,7.22378759765625,-0.994049072265625,0.02227783203125,0.0140533447265625
1772457162377806600,7.233806640625,-0.99578857421875,0.0233917236328125,0.0130767822265625
1772457162387824600,7.24382470703125,-0.9964752197265625,0.02178955078125,0.014862060546875
1772457162397842700,7.2538427734375,-0.9959564208984375,0.0215301513671875,0.0140533447265625
1772457162407861800,7.26386181640625,-0.9931182861328125,0.022552490234375,0.013916015625
1772457162417879600,7.273879638671875,-0.9951171875,0.0213623046875,0.0131378173828125
1772457162427898600,7.283898681640625,-0.995025634765625,0.0223541259765625,0.0123138427734375
1772457162437916700,7.293916748046875,-0.996002197265625,0.02264404296875,0.0125885009765625
1772457162447934700,7.303934814453125,-0.9951171875,0.02276611328125,0.0130767822265625
1772457162457953800,7.313953857421875,-0.9934539794921875,0.0227813720703125,0.0127105712890625
1772457162467971600,7.3239716796875,-0.994964599609375,0.022918701171875,0.012939453125
1772457162477990700,7.33399072265625,-0.9947357177734375,0.022857666015625,0.0127716064453125
1772457162488008700,7.3440087890625,-0.9947052001953125,0.0211334228515625,0.0128631591796875
1772457162498026500,7.354026611328125,-0.99407958984375,0.0224761962890625,0.01312255859375
1772457162508045600,7.364045654296875,-0.995819091796875,0.023834228515625,0.0135650634765625
1772457162518063600,7.374063720703125,-0.996185302734375,0.0226287841796875,0.0130462646484375
1772457162528082700,7.384082763671875,-0.9962615966796875,0.0235137939453125,0.0145416259765625
1772457162538100700,7.394100830078125,-0.9955596923828125,0.02215576171875,0.0135650634765625
1772457162548118500,7.404118408203125,-0.9967498779296875,0.022918701171875,0.012939453125
1772457162558137600,7.4141376953125,-0.9938812255859375,0.02337646484375,0.0110015869140625
1772457162568155600,7.42415576171875,-0.9965057373046875,0.02264404296875,0.013519287109375
1772457162578174500,7.434174560546875,-0.995269775390625,0.0233306884765625,0.01312255859375
1772457162588192800,7.44419287109375,-0.99505615234375,0.0226287841796875,0.0124359130859375
1772457162598210600,7.45421044921875,-0.99505615234375,0.0216217041015625,0.0133209228515625
1772457162608229600,7.464229736328125,-0.9952392578125,0.0229339599609375,0.012481689453125
1772457162618247700,7.47424755859375,-0.995147705078125,0.0220947265625,0.0111083984375
1772457162628266500,7.4842666015625,-0.99603271484375,0.0229644775390625,0.01153564453125
1772457162638284800,7.494284912109375,-0.9956512451171875,0.0236053466796875,0.01300048828125
1772457162648302600,7.504302490234375,-0.9950103759765625,0.022552490234375,0.0133514404296875
1772457162658321700,7.51432177734375,-0.9962158203125,0.022186279296875,0.0130615234375
1772457162668339700,7.524339599609375,-0.995208740234375,0.02264404296875,0.014251708984375
1772457162678358500,7.534358642578125,-0.994476318359375,0.022308349609375,0.0132598876953125
1772457162688376600,7.54437646484375,-0.9953765869140625,0.0236663818359375,0.014068603515625
1772457162698394600,7.55439453125,-0.99505615234375,0.0230560302734375,0.0119171142578125
1772457162708413700,7.56441357421875,-0.9950714111328125,0.0219573974609375,0.013763427734375
1772457162718431700,7.574431640625,-0.996185302734375,0.0219879150390625,0.013641357421875
1772457162728450600,7.584450439453125,-0.9973297119140625,0.0211639404296875,0.01312255859375
1772457162738468600,7.594468505859375,-0.99560546875,0.0212860107421875,0.012603759765625
1772457162748486700,7.604486572265625,-0.9958953857421875,0.02276611328125,0.01251220703125
1772457162758505500,7.61450537109375,-0.9956512451171875,0.023773193359375,0.0124969482421875
1772457162768523800,7.624523681640625,-0.996063232421875,0.0210113525390625,0.01348876953125
1772457162778542800,7.63454296875,-0.995025634765625,0.022552490234375,0.0145111083984375
1772457162788560600,7.644560546875,-0.99468994140625,0.0224761962890625,0.014251708984375
1772457162798578700,7.65457861328125,-0.9959564208984375,0.02362060546875,0.0136871337890625
1772457162808597500,7.664597412109375,-0.9955902099609375,0.02301025390625,0.0128021240234375
1772457162818615600,7.674615478515625,-0.996368408203125,0.0228118896484375,0.0123443603515625
1772457162828634000,7.684634033203125,-0.99688720703125,0.0228271484375,0.0131072998046875
1772457162838652200,7.694652099609375,-0.9964141845703125,0.02227783203125,0.0126190185546875
1772457162848670000,7.704669921875,-0.995452880859375,0.022613525390625,0.01226806640625
1772457162858689000,7.71468896484375,-0.99542236328125,0.0222930908203125,0.0152435302734375
1772457162868706800,7.724706787109375,-0.9939422607421875,0.0234222412109375,0.0127410888671875
1772457162878726000,7.734725830078125,-0.9945831298828125,0.0213775634765625,0.014251708984375
1772457162888744200,7.744744140625,-0.9969635009765625,0.02294921875,0.01312255859375
1772457162898763000,7.754762939453125,-0.9952545166015625,0.0226898193359375,0.0143890380859375
1772457162908781000,7.764781005859375,-0.994903564453125,0.0226898193359375,0.0121002197265625
1772457162918798800,7.774798828125,-0.9952545166015625,0.023223876953125,0.01336669921875
1772457162928818000,7.78481787109375,-0.99560546875,0.022308349609375,0.01312255859375
1772457162938836200,7.794836181640625,-0.995025634765625,0.0227508544921875,0.0137176513671875
1772457162948854000,7.80485400390625,-0.9954681396484375,0.0245819091796875,0.0132904052734375
1772457162958873000,7.814873046875,-0.995758056640625,0.022186279296875,0.0132904052734375
1772457162968891100,7.82489111328125,-0.9964141845703125,0.0228118896484375,0.0135345458984375
1772457162978910000,7.834909912109375,-0.995025634765625,0.0220947265625,0.012725830078125
1772457162988928000,7.844927978515625,-0.995361328125,0.02239990234375,0.0129547119140625
1772457162998947000,7.854947021484375,-0.9942779541015625,0.0238800048828125,0.0152740478515625
1772457163008965000,7.864965087890625,-0.9957122802734375,0.0219268798828125,0.014495849609375
1772457163018983200,7.874983154296875,-0.9950103759765625,0.022613525390625,0.0125579833984375
1772457163029002000,7.885001953125,-0.9962005615234375,0.023101806640625,0.0121612548828125
1772457163039020000,7.89502001953125,-0.99591064453125,0.02349853515625,0.012176513671875
1772457163049039000,7.9050390625,-0.9965972900390625,0.022613525390625,0.0131683349609375
1772457163059057000,7.915056884765625,-0.996307373046875,0.0219268798828125,0.014068603515625
1772457163069075200,7.9250751953125,-0.9952545166015625,0.021087646484375,0.0117950439453125
1772457163079094000,7.935093994140625,-0.996337890625,0.02392578125,0.013458251953125
1772457163089112000,7.945112060546875,-0.995819091796875,0.0236968994140625,0.012847900390625
1772457163099131100,7.955131103515625,-0.9962005615234375,0.022308349609375,0.0126495361328125
1772457163109149000,7.96514892578125,-0.9948577880859375,0.0218963623046875,0.012725830078125
1772457163119167000,7.9751669921875,-0.9963531494140625,0.022430419921875,0.014007568359375
1772457163129185800,7.985185791015625,-0.9965667724609375,0.0207672119140625,0.0127410888671875
1772457163139204000,7.9952041015625,-0.9952239990234375,0.02227783203125,0.01123046875
1772457163149223200,8.00522314453125,-0.99493408203125,0.0233612060546875,0.0130767822265625
1772457163159241000,8.015240966796876,-0.997589111328125,0.0240631103515625,0.013641357421875
1772457163169259000,8.025259033203126,-0.9944000244140625,0.0209197998046875,0.0130462646484375
1772457163179278000,8.035278076171876,-0.994659423828125,0.02239990234375,0.012451171875
1772457163189296000,8.045296142578126,-0.99359130859375,0.0214080810546875,0.01416015625
1772457163199315000,8.05531494140625,-0.995849609375,0.022613525390625,0.013397216796875
1772457163209333000,8.0653330078125,-0.9956207275390625,0.0220947265625,0.0131988525390625
1772457163219351000,8.07535107421875,-0.9940338134765625,0.0223236083984375,0.0117034912109375
1772457163229370000,8.0853701171875,-0.9962005615234375,0.022857666015625,0.0123291015625
1772457163239388000,8.095387939453126,-0.99456787109375,0.0232086181640625,0.01275634765625
1772457163249407000,8.105406982421876,-0.9947967529296875,0.0234527587890625,0.0130462646484375
1772457163259425000,8.115425048828126,-0.9959564208984375,0.0236053466796875,0.01226806640625
1772457163269443000,8.125443115234376,-0.994720458984375,0.02215576171875,0.0119781494140625
1772457163279462100,8.135462158203126,-0.9942779541015625,0.0234222412109375,0.01239013671875
1772457163289480000,8.14547998046875,-0.9962310791015625,0.0221710205078125,0.011566162109375
1772457163299499000,8.1554990234375,-0.993865966796875,0.0223388671875,0.0123748779296875
1772457163309516800,8.165516845703126,-0.9943084716796875,0.0215606689453125,0.0124359130859375
1772457163319535000,8.17553515625,-0.995208740234375,0.02215576171875,0.0111083984375
1772457163329554200,8.18555419921875,-0.996612548828125,0.0240325927734375,0.0121917724609375
1772457163339572000,8.195572021484375,-0.994781494140625,0.0228729248046875,0.013397216796875
1772457163349591000,8.205591064453126,-0.9954376220703125,0.0225067138671875,0.0123748779296875
1772457163359609000,8.215609130859375,-0.994903564453125,0.022247314453125,0.014617919921875
1772457163369627000,8.225626953125,-0.9926605224609375,0.0242462158203125,0.012847900390625
1772457163379646000,8.23564599609375,-0.9948883056640625,0.0225067138671875,0.0133514404296875
1772457163389664000,8.2456640625,-0.995513916015625,0.0218505859375,0.0135650634765625
1772457163399683000,8.25568310546875,-0.995758056640625,0.0230560302734375,0.0107879638671875
1772457163409701000,8.265701171875,-0.9954681396484375,0.0226593017578125,0.0135345458984375
1772457163419719000,8.275718994140625,-0.9951934814453125,0.021484375,0.0131683349609375
1772457163429738000,8.285738037109375,-0.993804931640625,0.023223876953125,0.0135345458984375
1772457163439756000,8.295756103515625,-0.9947509765625,0.0241241455078125,0.0131683349609375
1772457163449775000,8.305775146484375,-0.9960784912109375,0.022369384765625,0.0142669677734375
1772457163459793200,8.315793212890625,-0.9954071044921875,0.02386474609375,0.0118408203125
1772457163469811000,8.32581103515625,-0.994781494140625,0.0233001708984375,0.0113677978515625
1772457163479830000,8.335830078125,-0.9956817626953125,0.0220184326171875,0.012176513671875
1772457163489848000,8.34584814453125,-0.9947967529296875,0.0227508544921875,0.0115203857421875
1772457163499867000,8.355866943359375,-0.996185302734375,0.0234222412109375,0.0130462646484375
1772457163509885200,8.36588525390625,-0.9963226318359375,0.02239990234375,0.0125732421875
1772457163519903000,8.375903076171875,-0.9966278076171875,0.022674560546875,0.01397705078125
1772457163529922000,8.385922119140625,-0.99530029296875,0.0222015380859375,0.013336181640625
1772457163539940000,8.395940185546875,-0.995361328125,0.0228118896484375,0.0132598876953125
1772457163549959000,8.405958984375,-0.995147705078125,0.0224761962890625,0.0139923095703125
1772457163559977000,8.41597705078125,-0.9950103759765625,0.0220794677734375,0.014801025390625
1772457163569995000,8.4259951171875,-0.99517822265625,0.0222930908203125,0.014373779296875
1772457163580014000,8.43601416015625,-0.9957122802734375,0.02178955078125,0.0128326416015625
1772457163590032100,8.4460322265625,-0.997467041015625,0.023193359375,0.01251220703125
1772457163600051000,8.456051025390625,-0.99591064453125,0.0232086181640625,0.012481689453125
1772457163610069000,8.466069091796875,-0.99456787109375,0.0226593017578125,0.0132598876953125
1772457163620086800,8.476086669921875,-0.9969024658203125,0.0224609375,0.0123138427734375
1772457163630105900,8.48610595703125,-0.9937286376953125,0.024169921875,0.0151824951171875
1772457163640124200,8.496124267578125,-0.995147705078125,0.0234375,0.013427734375
1772457163650143000,8.50614306640625,-0.9958953857421875,0.0220489501953125,0.01348876953125
1772457163660161000,8.5161611328125,-0.9959869384765625,0.0224761962890625,0.013153076171875
1772457163670179000,8.526178955078125,-0.99420166015625,0.0217437744140625,0.0124664306640625
1772457163680198000,8.536197998046875,-0.9947662353515625,0.022430419921875,0.0129852294921875
1772457163690216200,8.54621630859375,-0.9949951171875,0.0216522216796875,0.0122222900390625
1772457163700235000,8.556235107421875,-0.9952392578125,0.023406982421875,0.01251220703125
1772457163710253000,8.566253173828125,-0.9954681396484375,0.0225830078125,0.0150299072265625
1772457163720271000,8.57627099609375,-0.9954833984375,0.0230255126953125,0.011322021484375
1772457163730290000,8.5862900390625,-0.9952392578125,0.022491455078125,0.0142822265625
1772457163740308000,8.596307861328125,-0.9942779541015625,0.0235137939453125,0.015350341796875
1772457163750327000,8.6063271484375,-0.9954071044921875,0.0230865478515625,0.0138702392578125
1772457163760345000,8.616344970703125,-0.9972991943359375,0.0239715576171875,0.011749267578125
1772457163770363100,8.626363037109375,-0.996612548828125,0.021484375,0.0119781494140625
1772457163780382000,8.6363818359375,-0.994781494140625,0.02227783203125,0.013214111328125
1772457163790400000,8.64639990234375,-0.9942474365234375,0.0225982666015625,0.0126953125
1772457163800419000,8.656419189453125,-0.996063232421875,0.0234222412109375,0.012451171875
1772457163810436900,8.666436767578125,-0.9966278076171875,0.0225830078125,0.0135955810546875
1772457163820455200,8.676455078125,-0.9953155517578125,0.0233154296875,0.0150299072265625
1772457163830474500,8.686474609375,-0.997650146484375,0.0231475830078125,0.0128173828125
1772457163840492800,8.696492919921875,-0.9955902099609375,0.020904541015625,0.0125885009765625
1772457163850512000,8.706511962890625,-0.9942779541015625,0.0230560302734375,0.0131072998046875
1772457163860529700,8.71652978515625,-0.9941558837890625,0.023101806640625,0.0130767822265625
1772457163870547700,8.726547607421875,-0.9941864013671875,0.0236053466796875,0.0126190185546875
1772457163880566500,8.73656640625,-0.9932098388671875,0.0244140625,0.014892578125
1772457163890584800,8.746584716796875,-0.9951324462890625,0.023681640625,0.01226806640625
1772457163900603600,8.756603759765625,-0.995758056640625,0.023681640625,0.0120391845703125
1772457163910621700,8.76662158203125,-0.9957427978515625,0.0218353271484375,0.0131683349609375
1772457163920639700,8.7766396484375,-0.994537353515625,0.02178955078125,0.01190185546875
1772457163930658600,8.786658447265625,-0.9962921142578125,0.0220947265625,0.0126953125
1772457163940676600,8.796676513671875,-0.99560546875,0.0224151611328125,0.0121002197265625
1772457163950695700,8.80669580078125,-0.9952850341796875,0.024017333984375,0.0130767822265625
1772457163960713700,8.816713623046875,-0.9959564208984375,0.0235748291015625,0.0134124755859375
1772457163970731800,8.826731689453124,-0.9948577880859375,0.0241241455078125,0.01177978515625
1772457163980750800,8.836750732421875,-0.9954833984375,0.0227508544921875,0.012939453125
1772457163990768600,8.8467685546875,-0.998291015625,0.020599365234375,0.014007568359375
1772457164000787700,8.85678759765625,-0.99639892578125,0.0216827392578125,0.013824462890625
1772457164010805500,8.866805419921874,-0.99371337890625,0.02239990234375,0.01287841796875
1772457164020823800,8.87682373046875,-0.994781494140625,0.021484375,0.013336181640625
1772457164030843000,8.8868427734375,-0.99462890625,0.0229034423828125,0.013763427734375
1772457164040860700,8.896860595703124,-0.994354248046875,0.02386474609375,0.0150146484375
1772457164050879700,8.906879638671874,-0.995452880859375,0.0231475830078125,0.0125274658203125
1772457164060897500,8.9168974609375,-0.9958343505859375,0.0225830078125,0.011474609375
1772457164070915600,8.92691552734375,-0.998077392578125,0.022064208984375,0.013275146484375
1772457164080934700,8.9369345703125,-0.99639892578125,0.022308349609375,0.0114898681640625
1772457164090952700,8.94695263671875,-0.9954376220703125,0.022064208984375,0.01287841796875
1772457164100971800,8.9569716796875,-0.995361328125,0.0224151611328125,0.0138397216796875
1772457164110989800,8.96698974609375,-0.9962158203125,0.022491455078125,0.01324462890625
1772457164121007600,8.977007568359374,-0.9943389892578125,0.022552490234375,0.01116943359375
1772457164131026700,8.987026611328124,-0.994720458984375,0.0223388671875,0.0134429931640625
1772457164141044700,8.997044677734374,-0.99462890625,0.0224609375,0.0133819580078125
1772457164151063800,9.007063720703124,-0.994659423828125,0.02301025390625,0.013427734375
1772457164161081900,9.017081787109374,-0.996978759765625,0.0226287841796875,0.012237548828125
1772457164171099600,9.027099609375,-0.994415283203125,0.0221405029296875,0.01361083984375
1772457164181118700,9.03711865234375,-0.994720458984375,0.0220947265625,0.013092041015625
1772457164191136500,9.047136474609376,-0.9945831298828125,0.0219573974609375,0.01446533203125
1772457164201155600,9.057155517578124,-0.997100830078125,0.022796630859375,0.01312255859375
1772457164211174000,9.067173828125,-0.99395751953125,0.0220794677734375,0.0136260986328125
1772457164221192700,9.077192626953124,-0.9954681396484375,0.0221710205078125,0.0133819580078125
1772457164231210800,9.087210693359374,-0.9962158203125,0.02197265625,0.012786865234375
1772457164241228500,9.097228515625,-0.99383544921875,0.0214385986328125,0.0124053955078125
1772457164251247600,9.10724755859375,-0.9960784912109375,0.021942138671875,0.0127105712890625
1772457164261265700,9.117265625,-0.9962005615234375,0.023529052734375,0.0118255615234375
1772457164271283700,9.12728369140625,-0.99359130859375,0.0217742919921875,0.0121917724609375
1772457164281302800,9.137302734375,-0.9943084716796875,0.0234222412109375,0.012359619140625
1772457164291320800,9.14732080078125,-0.9967803955078125,0.0234222412109375,0.013031005859375
1772457164301339600,9.157339599609376,-0.995330810546875,0.0224609375,0.0128021240234375
1772457164311357700,9.167357666015626,-0.9956817626953125,0.0216217041015625,0.0122528076171875
1772457164321376800,9.177376708984376,-0.99505615234375,0.0220947265625,0.0140228271484375
1772457164331394600,9.18739453125,-0.9947967529296875,0.022796630859375,0.0119171142578125
1772457164341412900,9.197412841796876,-0.996917724609375,0.023193359375,0.0133209228515625
1772457164351431700,9.207431640625,-0.9934844970703125,0.02471923828125,0.012603759765625
1772457164361449700,9.21744970703125,-0.9947967529296875,0.023101806640625,0.0127105712890625
1772457164371468800,9.22746875,-0.9941253662109375,0.023284912109375,0.0137939453125
1772457164381486600,9.237486572265626,-0.9954833984375,0.0236663818359375,0.0123138427734375
1772457164391504600,9.247504638671876,-0.9957427978515625,0.0223541259765625,0.012359619140625
1772457164401523700,9.257523681640626,-0.9953155517578125,0.02105712890625,0.014251708984375
1772457164411541800,9.267541748046876,-0.9956207275390625,0.021636962890625,0.01324462890625
1772457164421560800,9.277560791015626,-0.993865966796875,0.0229339599609375,0.011871337890625
1772457164431578600,9.28757861328125,-0.9942474365234375,0.0234375,0.0123138427734375
1772457164441596700,9.2975966796875,-0.99517822265625,0.0229644775390625,0.0148773193359375
1772457164451615700,9.30761572265625,-0.9954986572265625,0.02294921875,0.012847900390625
1772457164461633800,9.3176337890625,-0.994659423828125,0.02178955078125,0.012603759765625
1772457164471652900,9.32765283203125,-0.9953765869140625,0.02264404296875,0.0131683349609375
1772457164481670700,9.337670654296875,-0.9952392578125,0.0213775634765625,0.013031005859375
1772457164491688700,9.347688720703125,-0.993988037109375,0.0212249755859375,0.01263427734375
1772457164501707800,9.357707763671876,-0.995574951171875,0.0209808349609375,0.013031005859375
1772457164511725600,9.3677255859375,-0.995208740234375,0.021636962890625,0.0149078369140625
1772457164521744600,9.37774462890625,-0.9956207275390625,0.02294921875,0.0135650634765625
1772457164531762700,9.3877626953125,-0.995025634765625,0.0229034423828125,0.013702392578125
1772457164541780700,9.39778076171875,-0.9968109130859375,0.0215301513671875,0.013916015625
1772457164551799800,9.4077998046875,-0.9963531494140625,0.02203369140625,0.01373291015625
1772457164561817600,9.417817626953125,-0.9947357177734375,0.0222320556640625,0.0121917724609375
1772457164571836700,9.427836669921875,-0.994171142578125,0.022552490234375,0.0143585205078125
1772457164581854500,9.4378544921875,-0.99749755859375,0.022796630859375,0.013519287109375
1772457164591872800,9.447872802734375,-0.9951934814453125,0.0220947265625,0.0145416259765625
1772457164601891800,9.457891845703125,-0.994598388671875,0.0222320556640625,0.0125732421875
1772457164611909600,9.46790966796875,-0.9943389892578125,0.0208282470703125,0.0116424560546875
1772457164621928700,9.4779287109375,-0.99542236328125,0.0228424072265625,0.01324462890625
1772457164631946800,9.48794677734375,-0.995758056640625,0.02325439453125,0.0131072998046875
1772457164641964800,9.49796484375,-0.9962310791015625,0.0219573974609375,0.0135955810546875
1772457164651983600,9.507983642578125,-0.9959869384765625,0.022125244140625,0.0119781494140625
1772457164662001700,9.518001708984375,-0.994720458984375,0.0229644775390625,0.012420654296875
1772457164672020700,9.528020751953125,-0.99505615234375,0.0243377685546875,0.0125885009765625
1772457164682038800,9.538038818359375,-0.9966888427734375,0.0233001708984375,0.013671875
1772457164692056600,9.548056640625,-0.99444580078125,0.0232696533203125,0.0133056640625
1772457164702075600,9.55807568359375,-0.99566650390625,0.0224151611328125,0.01239013671875
1772457164712093700,9.56809375,-0.9951171875,0.023040771484375,0.0129241943359375
1772457164722112800,9.57811279296875,-0.99505615234375,0.022064208984375,0.0140228271484375
1772457164732130800,9.588130859375,-0.9961395263671875,0.0223236083984375,0.015289306640625
1772457164742148600,9.598148681640625,-0.99755859375,0.0209503173828125,0.013671875
1772457164752167700,9.608167724609375,-0.9967803955078125,0.02252197265625,0.012054443359375
1772457164762185500,9.618185546875,-0.994537353515625,0.02362060546875,0.012542724609375
1772457164772204500,9.62820458984375,-0.9933319091796875,0.0239105224609375,0.014129638671875
1772457164782222800,9.638222900390625,-0.9955291748046875,0.0225830078125,0.0124969482421875
1772457164792240600,9.64824072265625,-0.9963531494140625,0.020660400390625,0.0128173828125
1772457164802259700,9.658259765625,-0.9965972900390625,0.0220489501953125,0.013946533203125
1772457164812277800,9.66827783203125,-0.9965972900390625,0.02325439453125,0.0131072998046875
1772457164822296600,9.678296630859375,-0.9952850341796875,0.0214080810546875,0.0126190185546875
1772457164832314000,9.688314208984375,-0.9947357177734375,0.0232696533203125,0.0135650634765625
1772457164842332000,9.698331787109375,-0.9933013916015625,0.0238189697265625,0.0117950439453125
1772457164852351000,9.70835107421875,-0.995269775390625,0.023040771484375,0.012451171875
1772457164862369000,9.718369140625,-0.9951934814453125,0.02264404296875,0.0116424560546875
1772457164872387800,9.728387939453125,-0.9945526123046875,0.021392822265625,0.0125732421875
1772457164882406000,9.738406005859375,-0.995574951171875,0.0222320556640625,0.0127410888671875
1772457164892424000,9.748423828125,-0.9966888427734375,0.0215606689453125,0.0130462646484375
1772457164902443000,9.758443115234375,-0.996185302734375,0.0221099853515625,0.0142059326171875
1772457164912461000,9.7684609375,-0.9950103759765625,0.0224761962890625,0.0146942138671875
1772457164922479900,9.77847998046875,-0.9958343505859375,0.0226898193359375,0.0132904052734375
1772457164932498000,9.788497802734375,-0.9958038330078125,0.022857666015625,0.0112762451171875
1772457164942516000,9.798515869140624,-0.994842529296875,0.022979736328125,0.012115478515625
1772457164952535000,9.80853515625,-0.9963226318359375,0.02349853515625,0.0110931396484375
1772457164962553000,9.818552978515624,-0.994110107421875,0.0225372314453125,0.013275146484375
1772457164972572000,9.828572021484375,-0.996978759765625,0.02227783203125,0.0132904052734375
1772457164982590000,9.83858984375,-0.996307373046875,0.020050048828125,0.014190673828125
1772457164992607700,9.848607666015624,-0.9933929443359375,0.0203094482421875,0.0137939453125
1772457165002626800,9.858626708984374,-0.9937744140625,0.0228271484375,0.014129638671875
1772457165012645000,9.86864501953125,-0.99664306640625,0.0230560302734375,0.014007568359375
1772457165022664000,9.878663818359374,-0.9935760498046875,0.0219879150390625,0.0124664306640625
1772457165032682000,9.888681884765624,-0.9949798583984375,0.023162841796875,0.0118865966796875
1772457165042700000,9.898699951171874,-0.9955291748046875,0.022705078125,0.0132293701171875
1772457165052718800,9.90871875,-0.9954071044921875,0.0218505859375,0.0110931396484375
1772457165062737000,9.91873681640625,-0.9957733154296875,0.02252197265625,0.0124969482421875
1772457165072756000,9.928755859375,-0.996795654296875,0.02197265625,0.0122833251953125
1772457165082774000,9.93877392578125,-0.994781494140625,0.02392578125,0.01214599609375
1772457165092792000,9.9487919921875,-0.9929962158203125,0.0240631103515625,0.0133209228515625
1772457165102811000,9.958810791015624,-0.9959564208984375,0.0220947265625,0.01519775390625
1772457165112829000,9.968828857421874,-0.9964599609375,0.0242919921875,0.0120391845703125
1772457165122848000,9.978847900390624,-0.9954681396484375,0.0218048095703125,0.012237548828125
1772457165132865800,9.98886572265625,-0.99810791015625,0.02301025390625,0.0129547119140625
1772457165142884000,9.998884033203124,-0.99566650390625,0.0222015380859375,0.0115814208984375
1772457165152903000,10.00890283203125,-0.99456787109375,0.0227203369140625,0.0117950439453125
1772457165162921000,10.0189208984375,-0.99554443359375,0.0230712890625,0.013153076171875
1772457165172940000,10.02893994140625,-0.99530029296875,0.0218353271484375,0.012420654296875
1772457165182957800,10.038957763671876,-0.995697021484375,0.0218353271484375,0.0123291015625
1772457165192976000,10.048975830078126,-0.99542236328125,0.022674560546875,0.01361083984375
1772457165202995000,10.058994873046874,-0.9941558837890625,0.021942138671875,0.01422119140625
1772457165213013000,10.069012939453126,-0.9947052001953125,0.0217742919921875,0.0130767822265625
1772457165223032000,10.079031982421874,-0.9951629638671875,0.0223541259765625,0.0128326416015625
1772457165233049900,10.0890498046875,-0.9955596923828125,0.0214385986328125,0.012725830078125
1772457165243068000,10.09906787109375,-0.993927001953125,0.0222930908203125,0.0120697021484375
1772457165253087000,10.1090869140625,-0.9959564208984375,0.02362060546875,0.0128936767578125
1772457165263105000,10.11910498046875,-0.9966583251953125,0.0240631103515625,0.0131072998046875
1772457165273124000,10.1291240234375,-0.994384765625,0.024505615234375,0.0133209228515625
1772457165283142000,10.139141845703126,-0.9949493408203125,0.02166748046875,0.012969970703125
1772457165293160000,10.149159912109376,-0.996368408203125,0.0214996337890625,0.013824462890625
1772457165303179000,10.159178955078126,-0.9960784912109375,0.022491455078125,0.0125732421875
1772457165313197800,10.16919775390625,-0.9964447021484375,0.0219879150390625,0.0130615234375
1772457165323216000,10.1792158203125,-0.994842529296875,0.022857666015625,0.0120849609375
1772457165333235000,10.18923486328125,-0.9942169189453125,0.0225677490234375,0.013824462890625
1772457165343253000,10.1992529296875,-0.9948272705078125,0.0235595703125,0.0126190185546875
1772457165353271000,10.20927099609375,-0.995086669921875,0.0228118896484375,0.0131072998046875
1772457165363289900,10.219289794921876,-0.9939422607421875,0.022552490234375,0.014892578125
1772457165373308000,10.229307861328126,-0.9957275390625,0.023681640625,0.0132598876953125
1772457165383327000,10.239326904296876,-0.9945831298828125,0.02178955078125,0.0143890380859375
1772457165393344800,10.2493447265625,-0.9951171875,0.022430419921875,0.011138916015625
1772457165403363000,10.259363037109376,-0.9964599609375,0.0217437744140625,0.011993408203125
1772457165413382100,10.269382080078126,-0.9970550537109375,0.0227813720703125,0.012359619140625
1772457165423400000,10.27939990234375,-0.995025634765625,0.023590087890625,0.0150299072265625
1772457165433419000,10.2894189453125,-0.9954681396484375,0.0224456787109375,0.012786865234375
1772457165443436800,10.299436767578126,-0.99530029296875,0.02105712890625,0.01263427734375
1772457165453454800,10.309454833984375,-0.9937591552734375,0.0221099853515625,0.011138916015625
1772457165463474000,10.319473876953126,-0.9960784912109375,0.020721435546875,0.012939453125
1772457165473492000,10.329491943359375,-0.9967193603515625,0.0237579345703125,0.012786865234375
1772457165483511000,10.339510986328126,-0.9968414306640625,0.0233612060546875,0.0133056640625
1772457165493528800,10.34952880859375,-0.9940643310546875,0.0218658447265625,0.01104736328125
1772457165503547000,10.359546875,-0.9948577880859375,0.0216522216796875,0.01263427734375
1772457165513566000,10.36956591796875,-0.9945526123046875,0.023651123046875,0.0133056640625
1772457165523584000,10.379583984375,-0.996124267578125,0.023284912109375,0.01275634765625
1772457165533603000,10.38960302734375,-0.9970855712890625,0.0233612060546875,0.012664794921875
1772457165543620900,10.399620849609375,-0.9953765869140625,0.023223876953125,0.012603759765625
1772457165553639000,10.409638916015625,-0.99664306640625,0.0234375,0.0130157470703125
1772457165563658000,10.419657958984375,-0.994903564453125,0.0211029052734375,0.012359619140625
1772457165573675800,10.42967578125,-0.99591064453125,0.02349853515625,0.0140838623046875
1772457165583694800,10.43969482421875,-0.99560546875,0.02362060546875,0.0123748779296875
1772457165593713200,10.449713134765625,-0.9948577880859375,0.022552490234375,0.0125732421875
1772457165603731000,10.45973095703125,-0.99554443359375,0.0208892822265625,0.0147247314453125
1772457165613750000,10.46975,-0.9952239990234375,0.02264404296875,0.01361083984375
1772457165623767800,10.479767822265625,-0.9954833984375,0.022491455078125,0.0124053955078125
1772457165633787000,10.489786865234375,-0.9946746826171875,0.0224151611328125,0.0142974853515625
1772457165643805000,10.499804931640625,-0.9947662353515625,0.022369384765625,0.0126800537109375
1772457165653823000,10.509822998046875,-0.9950408935546875,0.022552490234375,0.014404296875
1772457165663842000,10.519842041015625,-0.9944610595703125,0.022552490234375,0.012420654296875
1772457165673859800,10.52985986328125,-0.9942626953125,0.02264404296875,0.011383056640625
1772457165683879000,10.53987890625,-0.99456787109375,0.0231170654296875,0.01416015625
1772457165693897000,10.54989697265625,-0.9949188232421875,0.0225067138671875,0.0135955810546875
1772457165703915000,10.5599150390625,-0.99554443359375,0.02154541015625,0.013397216796875
1772457165713933800,10.569933837890625,-0.997833251953125,0.024169921875,0.014068603515625
1772457165723952000,10.5799521484375,-0.9955596923828125,0.02301025390625,0.0133209228515625
1772457165733971000,10.589970947265625,-0.9956207275390625,0.0215301513671875,0.0116424560546875
1772457165743989000,10.599989013671875,-0.9951934814453125,0.020263671875,0.01177978515625
1772457165754006800,10.6100068359375,-0.99554443359375,0.02166748046875,0.0142822265625
1772457165764025900,10.62002587890625,-0.9939422607421875,0.02423095703125,0.013946533203125
1772457165774044200,10.630044189453125,-0.9964599609375,0.024383544921875,0.011077880859375
1772457165784063000,10.64006298828125,-0.9952850341796875,0.024169921875,0.0122528076171875
1772457165794081000,10.6500810546875,-0.9954681396484375,0.0222320556640625,0.013031005859375
1772457165804098800,10.660098876953125,-0.9952545166015625,0.021026611328125,0.0134124755859375
1772457165814118000,10.670117919921875,-0.995941162109375,0.022369384765625,0.0130157470703125
1772457165824136000,10.680135986328125,-0.9960784912109375,0.020599365234375,0.012481689453125
1772457165834154800,10.69015478515625,-0.995361328125,0.0238189697265625,0.0137481689453125
1772457165844173000,10.700173095703125,-0.9948272705078125,0.0239410400390625,0.0138397216796875
1772457165854190800,10.71019091796875,-0.9959869384765625,0.024566650390625,0.011962890625
1772457165864210000,10.7202099609375,-0.99658203125,0.0237884521484375,0.0124664306640625
1772457165874228000,10.73022802734375,-0.993316650390625,0.0232086181640625,0.0135650634765625
1772457165884246800,10.740246826171875,-0.9944305419921875,0.022552490234375,0.0120086669921875
1772457165894264800,10.750264892578125,-0.9986572265625,0.0223236083984375,0.0123138427734375
1772457165904283000,10.760282958984375,-0.9952239990234375,0.022491455078125,0.0140380859375
1772457165914302000,10.770302001953125,-0.9941558837890625,0.022186279296875,0.012969970703125
1772457165924320000,10.780320068359375,-0.995880126953125,0.0222930908203125,0.011932373046875
1772457165934338800,10.7903388671875,-0.994110107421875,0.023223876953125,0.011932373046875
1772457165944356900,10.80035693359375,-0.99468994140625,0.023773193359375,0.0131378173828125
1772457165954375000,10.810375,-0.995758056640625,0.02301025390625,0.014434814453125
1772457165964393700,10.820393798828125,-0.99786376953125,0.0222320556640625,0.0120849609375
1772457165974412000,10.830412109375,-0.9959259033203125,0.0214385986328125,0.011962890625
1772457165984430800,10.840430908203125,-0.99627685546875,0.021240234375,0.0128173828125
1772457165994449000,10.850448974609375,-0.9959869384765625,0.0215911865234375,0.0142974853515625
1772457166004467000,10.860467041015625,-0.9954986572265625,0.02166748046875,0.013153076171875
1772457166014485800,10.87048583984375,-0.9951019287109375,0.0239105224609375,0.0117034912109375
1772457166024504000,10.880504150390625,-0.996124267578125,0.023223876953125,0.0133209228515625
1772457166034523100,10.890523193359375,-0.9954681396484375,0.0232086181640625,0.0125732421875
1772457166044541000,10.900541015625,-0.9951324462890625,0.02178955078125,0.0117645263671875
1772457166054559000,10.91055908203125,-0.99560546875,0.020843505859375,0.0131683349609375
1772457166064577800,10.920577880859375,-0.9965972900390625,0.02264404296875,0.0135650634765625
1772457166074595800,10.930595947265624,-0.9959716796875,0.02191162109375,0.01275634765625
1772457166084615000,10.940614990234375,-0.995635986328125,0.0222320556640625,0.0133514404296875
1772457166094633000,10.950633056640624,-0.99566650390625,0.0236663818359375,0.01300048828125
1772457166104651000,10.960651123046874,-0.9953155517578125,0.0235748291015625,0.014984130859375
1772457166114669800,10.970669921875,-0.9952392578125,0.0225372314453125,0.014190673828125
1772457166124688000,10.98068798828125,-0.9947509765625,0.022308349609375,0.013458251953125
1772457166134707000,10.99070703125,-0.996063232421875,0.0235595703125,0.0126190185546875
1772457166144724700,11.000724853515624,-0.99658203125,0.02252197265625,0.0140228271484375
1772457166154743800,11.010743896484374,-0.994476318359375,0.0212249755859375,0.0152587890625
1772457166164761900,11.020761962890624,-0.9952239990234375,0.0220184326171875,0.0132598876953125
1772457166174780000,11.03077978515625,-0.9949951171875,0.0239410400390625,0.01202392578125
1772457166184799000,11.040799072265624,-0.997344970703125,0.023468017578125,0.0128326416015625
1772457166194816800,11.050816650390624,-0.9957733154296875,0.0229339599609375,0.0128936767578125
1772457166204834800,11.060834716796874,-0.994964599609375,0.022796630859375,0.0141448974609375
1772457166214854000,11.07085400390625,-0.996185302734375,0.02301025390625,0.01318359375
1772457166224872000,11.080871826171874,-0.9944000244140625,0.0224456787109375,0.01165771484375
1772457166234891000,11.09089111328125,-0.994842529296875,0.0220489501953125,0.0144805908203125
1772457166244908800,11.10090869140625,-0.99481201171875,0.022613525390625,0.0137481689453125
1772457166254928000,11.110927978515624,-1.0077362060546875,0.024688720703125,0.0124969482421875
1772457166264946000,11.12094580078125,-1.0054168701171875,0.0248260498046875,0.0147857666015625
1772457166274964000,11.1309638671875,-0.9573516845703125,0.0130462646484375,0.0141448974609375
1772457166284983000,11.140983154296874,-0.9877471923828125,0.019500732421875,0.0138397216796875
1772457166295000800,11.151000732421876,-1.0326995849609375,0.0305328369140625,0.0135498046875
1772457166305019000,11.161018798828126,-1.0045623779296875,0.0242462158203125,0.0129547119140625
1772457166315038000,11.171037841796876,-0.966094970703125,0.014129638671875,0.0127716064453125
