time,seconds_elapsed,z,y,x
1772457155228422700,0.084422607421875,-0.029595512318611142,0.016875366150960327,-0.0034505788452923298
1772457155238440400,0.0944404296875,0.07648293569982051,-0.006187273800186813,0.013896934862062334
1772457155248459500,0.10445947265625,0.10206687428951262,-0.0239690142063424,0.008258116124337538
1772457155258477600,0.1144775390625,-0.01344458798468113,-0.0028740941315889357,-0.00040555772674269973
1772457155268496600,0.12449658203125,0.020074819779396055,-0.0029759105382487177,0.016613317681290207
1772457155278514700,0.1345146484375,0.08126900093257426,-0.02352366332532838,0.012149945064261555
1772457155288533500,0.144533447265625,0.049397944897413254,-0.01923396677477285,0.011647530233766882
1772457155298551600,0.154551513671875,0.013488427126407623,-0.0039772878668271,0.004020423755655065
1772457155308569300,0.1645693359375,0.0520884991556406,-0.011378869360219687,0.010681333816424011
1772457155318588400,0.17458837890625,0.05792202761471271,-0.0002951104890555143,0.016110857185022906
1772457155328606700,0.184606689453125,0.02425882746577263,-0.007396320796385407,0.0234347064002417
1772457155338625500,0.19462548828125,0.03323883725702762,-0.01809312617657706,0.014623029780061915
1772457155348643600,0.2046435546875,0.05388941109776497,-0.011798994468431918,0.009830945798475295
1772457155358661400,0.214661376953125,0.04326221862137317,0.0005837547047063708,0.026569999618129805
1772457155368680400,0.224680419921875,0.056280105626583095,-0.012606219198089092,0.015513621944235638
1772457155378698500,0.234698486328125,0.04685469015538692,-0.011752579777128994,-0.0008463602968025952
1772457155388717300,0.24471728515625,0.025754618981480598,-0.00731580290608108,0.014725019716657697
1772457155398735600,0.254735595703125,0.048648003312945366,-0.014548329709190875,0.0060404309417121105
1772457155408754700,0.264754638671875,0.03698094639480114,-0.00019890183927491305,0.0046529860381502655
1772457155418772500,0.2747724609375,0.036382395979762075,-0.004234185237344354,0.011543567535793407
1772457155428790500,0.28479052734375,0.052689972180128095,-0.014714260860625654,0.023843332866905254
1772457155438809600,0.2948095703125,0.04042085771560669,-0.013587302657309919,0.009430237776786088
1772457155448827400,0.304827392578125,0.014235446101427077,-0.00452964278627187,0.008933339371625333
1772457155458846500,0.314846435546875,0.02575403445959091,0.0011458090342581272,0.014626856571808457
1772457155468864500,0.324864501953125,0.056575873702764505,-0.00568370819222182,0.01842212980207987
1772457155478882600,0.334882568359375,0.030092940446734426,-0.012887465558573603,0.0003327938846312463
1772457155488901600,0.344901611328125,0.033383798685669895,-0.010122932748682796,0.0032091804380062964
1772457155498919400,0.35491943359375,0.054928106495738024,-0.007412431680969894,0.019490918944217263
1772457155508938500,0.3649384765625,0.04609831883013248,-0.03297446896610781,0.017843535329680887
1772457155518956500,0.37495654296875,0.041460137635469435,-0.027813232011720538,0.01986270226552151
1772457155528974600,0.384974609375,0.04819032267332077,-0.004429579945281148,0.023217611317150295
1772457155538993700,0.39499365234375,0.038463878428936005,-0.0008950491435825824,0.017014847686886787
1772457155549011500,0.405011474609375,0.04953647658526897,0.0023843743858858943,0.014179286334244534
1772457155559030500,0.415030517578125,0.05432487990558147,-0.015301851490233092,0.005406745281210169
1772457155569048600,0.425048583984375,0.04295359106361866,-0.008504208973050117,-0.0022516057185363023
1772457155579066600,0.435066650390625,0.038166356787085534,-0.021487316925823688,0.02604975686999969
1772457155589085700,0.445085693359375,0.039516602352261544,-0.012148648156318814,0.015762482138769702
1772457155599103500,0.455103515625,0.040865678873658176,-0.027016473877150563,0.005882463901024312
1772457155609122600,0.46512255859375,0.028448095849156377,-0.009596479455474764,0.016128137113386763
1772457155619140600,0.475140625,0.06585691226720809,-0.018599961453862487,0.010283000414911658
1772457155629159400,0.485159423828125,0.04176291997432709,0.010684311224799603,-0.002110562413185835
1772457155639177500,0.495177490234375,0.026202947270870205,0.0012281535554677248,0.001902637017238885
1772457155649195500,0.505195556640625,0.049695466539263725,-0.024610581779200582,-0.0036324382182210684
1772457155659214600,0.515214599609375,0.056880994129180906,-0.007876852588634938,0.011946969838067888
1772457155669232600,0.525232666015625,0.049554596763849254,-0.03053461979962885,0.02828859443850815
1772457155679251500,0.53525146484375,0.04536708194613456,-0.020999021952226755,0.016887723309034482
1772457155689269500,0.54526953125,0.06302198110222816,-0.02019446410369128,0.017156685576681048
1772457155699287300,0.555287353515625,0.03698620709180832,0.00423179235085845,0.01705117937559262
1772457155709306400,0.565306396484375,0.03848082956373691,-0.007333228964917361,-0.0021645484895911065
1772457155719324700,0.57532470703125,0.05284545500278472,-0.006129241736326366,0.0046356695771683
1772457155729343500,0.585343505859375,0.048209027373790736,0.0036983613275922834,0.014384910175250842
1772457155739361500,0.595361572265625,0.03534136249423027,-0.009084712274745107,0.001905842754477635
1772457155749380600,0.605380615234375,0.03729074299633503,-0.01713063781997189,0.008894404733879492
1772457155759398400,0.6153984375,0.050608489730954165,-0.010644088812265544,0.013281186717050149
1772457155769416400,0.62541650390625,0.05105623349845409,-0.009407551020942628,0.003406410910002887
1772457155779435500,0.635435546875,0.04776537525951862,-0.015514800121169537,-0.0012202807762660085
1772457155789453600,0.64545361328125,0.04926292034089565,0.00009405322531238198,0.011684830036852507
1772457155799472600,0.65547265625,0.04611877709627151,0.014087726460117847,0.003865315392334014
1772457155809490400,0.665490478515625,0.04521802886426449,-0.011753328695800154,0.00681080339285545
1772457155819508500,0.675508544921875,0.04417290372550487,-0.010765651099011302,0.006997119745193049
1772457155829527300,0.68552734375,0.04357727591991424,-0.014483210317417979,-0.003563309371611103
1772457155839545600,0.695545654296875,0.043426469272375104,-0.018304942296352236,-0.008328541878890245
1772457155849564400,0.705564453125,0.03145312288403511,-0.02915498374318704,0.003641461774893105
1772457155859582500,0.71558251953125,0.037138182783126826,-0.019365904325060544,0.007563156130118295
1772457155869600300,0.725600341796875,0.046263738524913785,0.0038253487081266937,0.014559600021876394
1772457155879619300,0.735619384765625,0.04671440490186214,-0.01663912797598168,0.004305990098230541
1772457155889637400,0.745637451171875,0.052851300221681594,-0.02182467738771811,0.014673280396265908
1772457155899656200,0.75565625,0.06347673913240433,-0.0033598683545365926,0.014085242242086678
1772457155909674500,0.765674560546875,0.03773848676383495,-0.017440470954123884,0.007771766512654721
1772457155919692500,0.775692626953125,0.03280219940543175,-0.009338084247615187,0.007997035769047214
1772457155929711400,0.78571142578125,0.03714636608958244,-0.012147387780994176,0.01690440958235413
1772457155939729400,0.7957294921875,0.02688157718479633,-0.0021402086327783764,0.001269517612317577
1772457155949748500,0.80574853515625,-0.08214403020143508,0.04266618895698338,0.002210734852030873
1772457155959766300,0.815766357421875,0.05877192244231701,-0.020173969304934144,0.025987916280701753
1772457155969785300,0.825785400390625,0.27644670511782166,-0.08265532245812937,0.0024602435005363077
1772457155979803400,0.835803466796875,-0.021449030742049215,0.012005495092272759,0.011515263889916241
1772457155989821400,0.845821533203125,-0.13543839801549912,0.023723131420183924,0.02591783758602105
1772457155999840500,0.855840576171875,0.08719196124076843,-0.04315990902436897,0.01101114115952514
1772457156009858300,0.8658583984375,0.2007335847467184,-0.043097310383245345,-0.0003522566369269043
1772457156019877400,0.87587744140625,0.0145960961073637,0.014365191694628446,0.005894656662316993
1772457156029895400,0.8858955078125,-0.07129939558207989,0.02979896246884018,0.018836108297295866
1772457156039913500,0.89591357421875,0.12932020739614963,-0.03891363149043173,0.015854599135322497
1772457156049932500,0.9059326171875,0.134701900434494,-0.02524150009388104,-0.0013133567540440708
1772457156059950300,0.915950439453125,-0.10588730936050414,0.031002419974468648,0.00395021719681099
1772457156069969400,0.925969482421875,-0.0007002572238445281,-0.014350195054896176,-0.006451285898080095
1772457156079987200,0.9359873046875,0.14802023169100284,-0.0444984824180603,0.028729451807495206
1772457156090005500,0.946005615234375,0.03445581183135509,-0.018479202884715048,0.0076664795072749255
1772457156100024600,0.956024658203125,0.051827802392840384,-0.013847250501438974,0.003192859490867704
1772457156110042400,0.96604248046875,0.05181552743315696,-0.014324055966641753,0.0030962855149060486
1772457156120061400,0.9760615234375,0.09490238948762417,-0.020986034606490282,0.017464153223810716
1772457156130079500,0.98607958984375,0.03505494676828384,0.007768168049771338,0.030468952418584376
1772457156140097300,0.99609716796875,0.0034849195063114164,0.009713603029120712,0.0026600769215729086
1772457156150116400,1.006116455078125,0.03340367242991924,0.005424838060326874,-0.0035903709084726867
1772457156160134400,1.016134521484375,0.07290273912549018,-0.01922390203848481,0.026093011489836497
1772457156170153500,1.026153564453125,0.04956628720164299,-0.016421905028726903,0.024524328267853706
1772457156180171500,1.036171630859375,0.018744447958469388,-0.011631930805835872,0.011194041712069884
1772457156190190300,1.0461904296875,0.05061316590607166,-0.02269614472631365,-0.000968023048248142
1772457156200208400,1.05620849609375,0.07200725159049033,-0.00008713029418140649,0.014185359882004558
1772457156210226200,1.06622607421875,0.02906242835521698,0.0006521072331815957,0.0016302224171813576
1772457156220245200,1.076245361328125,0.045072482913732524,-0.00024557225890457627,0.0034374819017015394
1772457156230263600,1.086263671875,0.07095511218905448,-0.02111603592801839,0.03071574852019548
1772457156240282400,1.096282470703125,0.05883505080640316,-0.016106665067095308,0.02091309723444283
1772457156250300400,1.106300537109375,0.030253683966398236,-0.01790438040513545,0.001872196213202551
1772457156260318500,1.116318359375,0.021876316243410108,-0.015829492093529553,-0.004344449811941013
1772457156270337300,1.126337158203125,0.05135667774975299,-0.005302344191819429,0.006334719446860254
1772457156280355300,1.136355224609375,0.05270400070548057,-0.003199764155689627,0.014767790279304608
1772457156290374400,1.14637451171875,0.038189737662672994,-0.01728699742546305,0.013780971199041231
1772457156300392400,1.156392333984375,0.04612169970571994,-0.006658581106364726,-0.007500767551548778
1772457156310410500,1.166410400390625,0.038483752173185344,0.007594674646388739,0.008643626576894894
1772457156320429300,1.17642919921875,0.04760755434930324,-0.008825111490488051,0.0056627476025838406
1772457156330447400,1.186447265625,0.041323359513282774,-0.013035513993445783,0.011884106335463001
1772457156340466400,1.196466552734375,0.040427871978282924,-0.00774637634307146,0.007334936864813789
1772457156350484500,1.206484375,0.055092357146739955,-0.010920275405142456,0.011874662653682753
1772457156360502500,1.21650244140625,0.06048281801342964,-0.008876147557981311,0.01751339919301681
1772457156370521300,1.226521240234375,0.030709611040353774,0.0021944961032830178,-0.009482132360804826
1772457156380539400,1.236539306640625,0.03699380587637424,0.002399224895145744,0.0044195426084566855
1772457156390558500,1.246558349609375,0.041482349467277524,-0.00569680513581261,0.012204040738521143
1772457156400576300,1.256576171875,0.04297872550487518,-0.020631759542413055,0.012132117146626114
1772457156410595300,1.26659521484375,0.035498014360666276,-0.010079605063609779,0.005935554928286001
1772457156420613400,1.27661328125,0.05898878006339073,-0.013315554777532814,0.018649353553541005
1772457156430631400,1.28663134765625,0.03788929341137409,-0.004347966076433658,0.01848045412688516
1772457156440650500,1.296650390625,0.029358780953288078,-0.0016621793248690663,-0.00869524716627784
1772457156450668300,1.306668212890625,0.05464987407624721,0.005929919771943241,0.01121328526865691
1772457156460687400,1.316687255859375,0.041480595901608464,-0.006954330916237085,0.01458572997697629
1772457156470705400,1.326705322265625,0.034144261664152145,-0.024323070074710993,0.007660442492133006
1772457156480723500,1.336723388671875,0.050451253342628476,-0.011167363767698406,-0.004600890524731949
1772457156490742500,1.346742431640625,0.054641106247901916,-0.010585600090678781,-0.012349550156434998
1772457156500760300,1.35676025390625,0.03728431325554848,-0.00605014861812815,0.01955065890797414
1772457156510779400,1.366779296875,0.026809096470475195,-0.014870090743154287,0.01755206896928139
1772457156520797400,1.37679736328125,0.04312193336784839,-0.014807272906322031,0.001454756252421066
1772457156530815500,1.3868154296875,0.0503062919139862,-0.015492095099017023,0.0035743878880515694
1772457156540834300,1.396834228515625,0.048964229655265805,-0.004400207720324397,0.012736951171979307
1772457156550852400,1.406852294921875,0.05001403096914291,-0.01796358151277527,0.004009208241896703
1772457156560871400,1.416871337890625,0.04522562764883041,-0.017029004076402635,-0.0014373484598938374
1772457156570889500,1.426889404296875,0.028464462462067602,-0.011980086656380444,0.0035992209352087227
1772457156580907300,1.4369072265625,0.030707857474684713,-0.018750073981657622,0.003103701636381447
1772457156590926300,1.44692626953125,0.047615153133869166,-0.006077529815398156,-0.013098916352167724
1772457156600944600,1.456944580078125,0.03370645476877689,-0.0036602395405992863,-0.007711213698145002
1772457156610963500,1.46696337890625,0.03699789752960205,0.005292315988149493,0.009038562444923445
1772457156620981500,1.4769814453125,0.0374444722533226,-0.0033357202939689155,0.0024352917223703116
1772457156630999300,1.486999267578125,0.04612228422760963,-0.0023240042344667014,0.020094154667528345
1772457156641018400,1.497018310546875,0.042083237969875335,-0.010225443275086581,0.026680702584143727
1772457156651036400,1.507036376953125,0.054502574560046195,-0.020598624457791447,0.01715673124245368
1772457156661055200,1.51705517578125,0.04387713564932346,-0.0022533684173598884,0.010582166024576872
1772457156671073500,1.527073486328125,0.040434886240959166,-0.0009795490892603993,0.004723037333367392
1772457156681091300,1.53709130859375,0.050612581384181975,-0.010618077588174492,0.0024871497737709433
1772457156691110400,1.5471103515625,0.03385258524119854,0.001345898183621466,0.005730579541251063
1772457156701128400,1.55712841796875,0.044776130315661425,-0.0074773866759613155,-0.003109062798088416
1772457156711147300,1.567147216796875,0.04866904610097408,-0.00565042697712779,0.020093022156367078
1772457156721165300,1.577165283203125,0.0392395389765501,-0.013448387376964091,0.008092303703911601
1772457156731184400,1.587184326171875,0.03969020535349846,0.0001334353876300156,0.004565399086242541
1772457156741202400,1.597202392578125,0.049715340283513064,-0.011061273044720292,-0.00045877661816775796
1772457156751220500,1.607220458984375,0.04387655112743377,-0.01022767176479101,0.00587340381173417
1772457156761239300,1.6172392578125,0.03744271868765354,-0.01651888086348772,0.022989318986609577
1772457156771257300,1.62725732421875,0.049262335819005965,-0.011503774381522088,0.009638446300523355
1772457156781276400,1.6372763671875,0.04417991798818111,-0.013074092438165097,0.013697713362378999
1772457156791294500,1.64729443359375,0.029964345631003378,-0.008990914777759462,0.017346180266793815
1772457156801312500,1.6573125,0.03969429700672626,-0.00597196881538257,0.010585590957524255
1772457156811331600,1.66733154296875,0.04493219766020774,-0.01093145438628271,0.017092780894460157
1772457156821348900,1.677348876953125,0.039247722283005715,-0.012902955388650297,-0.0006806209416128694
1772457156831367700,1.68736767578125,0.032364392510056496,-0.01672883381973952,-0.012632349153188989
1772457156841385700,1.6973857421875,0.038945524466037745,-0.021722787915822116,0.008790515101142227
1772457156851403800,1.70740380859375,0.03490180203318596,-0.02122419074391946,0.004193140840902924
1772457156861422800,1.7174228515625,0.054506666213274,-0.013234361033793537,0.0180859657834284
1772457156871441000,1.72744091796875,0.056932432055473325,0.002959069001302123,0.02102240282781422
1772457156881459700,1.737459716796875,-0.015475217029452324,0.004322356711141765,0.020185522745409978
1772457156891477800,1.747477783203125,0.07055705278217791,-0.014377137860748916,0.009369557098113
1772457156901495800,1.757495849609375,0.0698088647633791,-0.008531389240920543,0.01484894749042578
1772457156911515000,1.767514892578125,0.004133738803863525,0.013942016112804411,0.004043868563324213
1772457156921533000,1.777532958984375,-0.016678747600317,-0.010935491240583359,0.005236201886739581
1772457156931552000,1.787552001953125,0.11017360837757587,-0.047899084641784426,0.0022285536365117876
1772457156941569800,1.79756982421875,0.1001332758784294,-0.03947480903714895,0.004219024200830608
1772457156951587800,1.807587890625,-0.0264385095924139,0.020315478401165453,0.01937155774771236
1772457156961606700,1.817606689453125,-0.028383213919401167,0.027999804092384874,0.006903313115052878
1772457156971625000,1.827625,0.1245288814663887,-0.012002554216515271,0.023278008868033065
1772457156981644000,1.83764404296875,0.0729062462568283,-0.0024892960650846362,0.025579673406528308
1772457156991661800,1.847661865234375,-0.019556933385133743,-0.01247307607140392,-0.0021672519033309073
1772457157001680000,1.857679931640625,0.01949263597726822,-0.02646503227315843,0.004973249234771356
1772457157011698700,1.86769873046875,0.07379939570426941,-0.03742375825885683,0.0057062214181292795
1772457157021716700,1.877716796875,0.03564706744253635,-0.012596117929182946,0.011415283247316256
1772457157031735800,1.88773583984375,0.0009369885891675948,0.0024120478441007434,0.011484393827617168
1772457157041753900,1.89775390625,0.044029111340641976,0.0025256094874814153,0.018767554839421063
1772457157051772000,1.90777197265625,0.08098667685985565,-0.009797810713853687,-0.0038530221663415428
1772457157061790700,1.917790771484375,0.051657706522941584,-0.002486866645980626,-0.0024602252342272547
1772457157071808800,1.927808837890625,0.026371289575099943,-0.0006313932387158274,0.022759337022481486
1772457157081827800,1.937827880859375,0.05240823262929916,-0.011918766656890512,0.01899234003862366
1772457157091845600,1.947845703125,0.0392395389765501,-0.018121256292518227,0.009960590926976874
1772457157101864000,1.957864013671875,0.004976034846901893,-0.002459321051929146,0.004233372386591509
1772457157111883000,1.967883056640625,0.035654081705212594,-0.019273896926362066,-0.006676043697819114
1772457157121900800,1.97790087890625,0.054209729093313216,-0.002906169770285487,0.013921018990548326
1772457157131920000,1.987919921875,0.04433481628894806,-0.005873513409588486,0.01110908510866575
1772457157141937700,1.997937744140625,0.03805529762804508,0.006571670007891953,0.0007375113611575216
1772457157151956700,2.007956787109375,0.029678514426946637,-0.008803338050097226,0.011500459046429023
1772457157161974800,2.017974853515625,0.0317757789671421,-0.018686361095681784,0.00397924236189574
1772457157171992800,2.027992919921875,0.03895896846950054,-0.02507474695853889,0.013059808184485882
1772457157182012000,2.038011962890625,0.03925590558946133,-0.025892474815901366,0.008646750115742907
1772457157192029700,2.04802978515625,0.027435703936219212,-0.011535302030947058,0.015776574596203862
1772457157202048800,2.058048828125,0.04569149159491062,-0.005804064902570098,-0.0019709164804778993
1772457157212066800,2.06806689453125,0.0421019426703453,0.002343092527426779,0.009301706893136724
1772457157222084900,2.0780849609375,0.05527063632309436,0.007602383028808981,0.0056866216685157265
1772457157232104000,2.08810400390625,0.047640287575125694,-0.0062593343893997365,0.019919665750302372
1772457157242122000,2.0981220703125,0.03926525793969631,-0.010615319375507533,0.016007963066129012
1772457157252140800,2.108140869140625,0.039867315486073494,-0.017376264877803624,0.0009508709840476512
1772457157262158800,2.118158935546875,0.02011339822411537,-0.015050434012431651,0.014526766331354156
1772457157272176600,2.1281767578125,0.0473480266302824,-0.0258383517421782,0.02345038802656345
1772457157282195700,2.13819580078125,0.047798693007230754,-0.012188468710053711,-0.0008608637461904435
1772457157292214000,2.148214111328125,0.05543079532086849,-0.015752755329199133,-0.0019156974282115698
1772457157302232800,2.15823291015625,0.044807694497704505,-0.007507306890189647,0.011917058756994083
1772457157312251000,2.1682509765625,0.043910453397035594,-0.008782057800050824,0.02723280177526176
1772457157322268700,2.1782685546875,0.033738603472709655,-0.01572714596390724,0.01806482253069989
1772457157332287700,2.188287841796875,0.043618776974081994,-0.012462244150135665,-0.0003756740451324731
1772457157342305800,2.198305908203125,0.030154315245151518,-0.024953531731665132,0.01918649263754487
1772457157352324600,2.20832470703125,0.04033025682270527,-0.024445417812746017,-0.00392287253215909
1772457157362343000,2.218343017578125,0.05214812038838863,-0.015560995616763829,0.0016432736949995158
1772457157372360700,2.228360595703125,0.05723462987244129,-0.008543390205968171,0.02251155454018153
1772457157382379800,2.2383798828125,0.05812894836366176,0.015765578278154134,0.016389820256875826
1772457157392397800,2.248397705078125,0.04286415921449661,0.007811422669608145,0.005222885747440159
1772457157402416600,2.258416748046875,0.049447044736146924,-0.005067256794311106,0.004987670485768467
1772457157412435000,2.26843505859375,0.03283843976259231,-0.017321648613736033,0.0023627927417401223
1772457157422453000,2.278452880859375,0.031036358776688575,-0.0288749064264819,-0.001826128581771627
1772457157432471800,2.288471923828125,0.03342763782739639,-0.038582445040997115,0.010302755428152158
1772457157442489900,2.29848974609375,0.03612111469507217,-0.016735610620398075,0.007458006122056394
1772457157452509000,2.308509033203125,0.03417465680241585,0.001735829082969576,0.01617805893602781
1772457157462526700,2.318526611328125,0.03896306012272834,0.008263915677461773,0.027054431267362088
1772457157472545000,2.328544921875,0.05153203431665897,0.007005567913129926,0.02476154369036667
1772457157482563800,2.338563720703125,0.051530280750989914,-0.015197313403524457,0.02891360360221006
1772457157492582000,2.348581787109375,0.038814007040858266,-0.01708608629219234,0.004186327507626265
1772457157502601000,2.35860107421875,0.03417641036808491,-0.008233082147780806,0.002578353454871103
1772457157512618800,2.36861865234375,0.041655367946624756,-0.010248440558183938,0.0013021503734402357
1772457157522636800,2.37863671875,0.03117722855210304,-0.006026621612068265,0.007985591926425695
1772457157532655600,2.388655517578125,0.03431844918727875,-0.003366681687813252,0.00748005355708301
1772457157542674000,2.398673828125,0.07307400403916835,0.00006314663039520382,0.004774950183695182
1772457157552693000,2.40869287109375,0.05362111555039882,0.0022549210536293683,0.013097628577379509
1772457157562710800,2.418710693359375,0.03192190943956375,0.01091240262594074,0.012973746469384059
1772457157572728800,2.428728759765625,0.03281681245267391,-0.004851696081180125,0.009872081526461988
1772457157582748000,2.438747802734375,0.027726211315393445,-0.00807615628670901,0.010233370853215455
1772457157592765700,2.448765625,0.04313946902453899,-0.00936827845647931,0.005351644959952682
1772457157602784800,2.45878466796875,0.03954641296863556,-0.016350063635222612,-0.001474136806325987
1772457157612802800,2.468802734375,0.027424013498425482,-0.018553912088740614,0.00039048802177421744
1772457157622822000,2.47882177734375,0.05032090496122837,0.0048977271799929434,0.016705087617971
1772457157632840000,2.48883984375,0.04239011196196079,0.012255615662131458,0.01142078140634112
1772457157642857700,2.498857666015625,0.03281505888700485,-0.0021815270238555967,0.00883936834470369
1772457157652876800,2.508876708984375,0.04553367068469524,-0.0030329014224931596,0.007514083690848201
1772457157662894800,2.518894775390625,0.04628653487861156,-0.011699205622076988,-0.002149853243958205
1772457157672913700,2.52891357421875,0.034468086791038514,-0.003790880182944238,0.004124057660065591
1772457157682932000,2.538931884765625,0.03791208976507187,-0.022268000708427278,-0.0007621982778422534
1772457157692949800,2.54894970703125,0.04734101236760616,-0.019806597297266124,0.012158311033807694
1772457157702968800,2.55896875,0.04105857109725475,-0.0061428501365706325,0.03558385688005947
1772457157712986600,2.568986572265625,0.05571954913437366,0.007167699672281742,0.013158838979015127
1772457157723005700,2.579005615234375,0.042996261161565776,0.01509788988335058,0.006509491491876542
1772457157733024000,2.58902392578125,0.030130934369564055,0.0038547757320106027,0.0037256968590896576
1772457157743041800,2.599041748046875,0.04449555980861187,-0.020863540737982838,0.013472151845041662
1772457157753060900,2.609060791015625,0.051229836499691005,-0.004862893328629434,0.022506339508946982
1772457157763079000,2.619078857421875,0.03207505417466163,-0.007156338028050959,0.02264868885539472
1772457157773097700,2.62909765625,0.04614332701563835,-0.02592604829194024,-0.0006710128630511462
1772457157783115800,2.63911572265625,0.048536944153904915,-0.018744137431215495,0.018299772930890322
1772457157793133800,2.6491337890625,0.048834465795755386,0.005939144258014857,0.02205333504443988
1772457157803153000,2.65915283203125,0.054367550003528595,-0.012744202896673232,0.003575365135585889
1772457157813171000,2.6691708984375,0.05481646281480789,-0.014268654251284896,0.02264621377051808
1772457157823191000,2.67919091796875,0.03566168048977852,-0.01486875730259344,0.0016253270463552326
1772457157833209000,2.689208984375,0.023687165057659148,-0.016628880576603115,-0.002061398642370477
1772457157843227100,2.69922705078125,0.03909633111357689,-0.019700049916561692,0.007682955718040466
1772457157853246200,2.70924609375,0.05061959564685821,-0.021976981872599572,0.02473730429825373
1772457157863264000,2.719263916015625,0.03864741830229759,-0.00784682277655229,0.011652891395473852
1772457157873283000,2.729282958984375,0.04538169499337673,-0.013936371823307125,0.014908166864374652
1772457157883301400,2.73930126953125,0.03191372613310814,-0.010364888278394936,0.026570803335728123
1772457157893319200,2.749319091796875,0.036252632120251656,-0.008048245366476475,0.02336326686553657
1772457157903338200,2.759338134765625,0.03804594527781009,-0.007948145992867648,0.02448385012699291
1772457157913356000,2.76935595703125,0.035952772390842436,-0.012414532550889998,0.02176300119520165
1772457157923375000,2.779375,0.05151683674752712,-0.034028215802740305,0.018266884441440923
1772457157933393200,2.78939306640625,0.055256023275852204,-0.014533935857657342,0.027803340805368497
1772457157943411200,2.7994111328125,0.06153963358998298,-0.014567125741206109,0.002320707165682688
1772457157953430300,2.80943017578125,0.04657295060455799,-0.0027637473586015404,0.001180432823067531
1772457157963448000,2.819447998046875,0.04747194527089595,-0.000737447429075837,-0.005455278864363208
1772457157973467100,2.829467041015625,0.040294600987434384,-0.0021196955677121876,0.017991994756506754
1772457157983485200,2.839485107421875,0.04688040911853313,-0.013274729576800018,0.011525620887149125
1772457157993503000,2.8495029296875,0.028476152899861332,0.002430953473970294,0.037686637845588844
1772457158003522000,2.85952197265625,0.0387993939936161,-0.009906933644134551,0.015528518119268118
1772457158013540400,2.869540283203125,0.042836102163791655,-0.016906765936221927,-0.004156571690179407
1772457158023559200,2.87955908203125,0.041937107497453684,-0.001697652497049421,0.019368333744164554
1772457158033577200,2.8895771484375,0.04807517186105251,-0.011746972020249814,0.03132712188418955
1772457158043595000,2.899594970703125,0.036706221106648444,0.0001197904547676444,0.015387529612844808
1772457158053614000,2.909614013671875,0.04733166001737117,0.008398191315308213,-0.0009067030487582086
1772457158063632100,2.919632080078125,0.03820142810046673,-0.006284304433874785,0.012235860648890956
1772457158073651200,2.929651123046875,0.05675766001045703,-0.007255140493717044,0.012205794304190203
1772457158083669200,2.939669189453125,0.0435877973139286,-0.006094736678525805,0.014059377148468047
1772457158093687000,2.94968701171875,0.03714928869903088,-0.015518088056799023,-0.001881155837792903
1772457158103706000,2.9597060546875,0.049421325773000714,-0.008725487040914595,0.02017645352296531
1772457158113724200,2.96972412109375,0.0554085834890604,0.008872676959261298,0.015782301084091885
1772457158123743000,2.979742919921875,0.035658757880330086,0.00003956482540816069,0.002083126416988671
1772457158133761300,2.98976123046875,0.02473229019641876,-0.005705755627248436,0.014384243454970419
1772457158143779000,2.999779052734375,0.04688040911853313,0.007577486049570143,0.015050607542367651
1772457158153798100,3.009798095703125,0.03999941743314266,0.00003742766724899411,0.010571105774445458
1772457158163816200,3.019816162109375,0.03296645005643368,-0.012923669383116065,0.002845973148802295
1772457158173835000,3.0298349609375,0.048233577293157574,0.0030878464801236986,0.0084218918513041
1772457158183853000,3.03985302734375,0.035218612897396084,-0.010860928167030215,0.02091404708251357
1772457158193871400,3.049871337890625,0.05332651651799678,-0.011264577064476906,0.000020869258092716333
1772457158203890200,3.05989013671875,0.04344868110418319,-0.00687260744953528,0.012305026028119026
1772457158213908200,3.069908203125,0.033572599256038664,-0.012583331512846052,0.009671234325272962
1772457158223927300,3.07992724609375,0.037462007910013195,-0.0065414027337916195,0.006763594117108732
1772457158233945000,3.089945068359375,0.031925416570901866,-0.005822879200894385,-0.01143806133470498
1772457158243963100,3.099963134765625,0.02339548863470554,-0.01402025071447715,-0.004490242357645184
1772457158253982000,3.10998193359375,0.03596270926296711,-0.020375026568677276,0.01580748119112104
1772457158264000300,3.120000244140625,0.037160979136824604,-0.013877426443994045,0.0018273524244781583
1772457158274019300,3.130019287109375,0.021748305949568746,-0.026403968001995234,0.004432201160630211
1772457158284037000,3.140037109375,0.041350832042098044,-0.007290759796369821,0.006753730310220271
1772457158294056200,3.15005615234375,0.033572014734148975,-0.0003447765833698213,0.014052426817873493
1772457158304074000,3.160073974609375,0.04808744682073593,-0.007142528698407113,-0.013903620331175625
1772457158314092000,3.170092041015625,0.050480479437112806,-0.00947197629297152,0.01829108730093576
1772457158324111000,3.180111083984375,0.04344517397284507,-0.008978639818076044,0.021634844770887864
1772457158334129200,3.190129150390625,0.03925590558946133,0.005522106156032532,0.019736244607949628
1772457158344148200,3.200148193359375,0.03955576531887054,-0.023008626475278286,0.0021744305627886206
1772457158354166300,3.210166259765625,0.032521044376492496,-0.01702904060902074,-0.0073841189019382
1772457158364184000,3.22018408203125,0.033416531911492346,-0.01004141021138057,-0.009281613953178749
1772457158374203100,3.230203125,0.03850479496121406,-0.020162169269286094,0.006516469221934676
1772457158384221200,3.24022119140625,0.04419511555731296,-0.011182342141121624,0.002685202229674905
1772457158394240300,3.250240234375,0.04090016566514969,0.0009922807066701353,0.009953375734901055
1772457158404258300,3.26025830078125,0.053172202739119524,-0.004172737373691052,0.014308904063282534
1772457158414276000,3.270276123046875,0.04389876295924187,-0.008113072497304528,0.008754493939690291
1772457158424295200,3.280295166015625,0.03865969326198101,-0.007500383959058672,0.008717303734458982
1772457158434313000,3.29031298828125,0.032521044376492496,-0.0001863346186466515,0.007856293857796117
1772457158444332000,3.30033203125,0.047182606935501095,-0.00234026124952361,-0.0067908657165244215
1772457158454350300,3.310350341796875,0.05511690706610679,-0.00035864071194082495,0.023097482935665173
1772457158464368000,3.3203681640625,0.032224691778421403,-0.005797489031311124,0.012919422466261312
1772457158474387200,3.33038720703125,0.04673837029933929,-0.019912852417025714,0.01442451153327711
1772457158484405000,3.340405029296875,0.03417582584619522,-0.002812609735317528,0.02028781407610513
1772457158494424000,3.350424072265625,0.024302082085609435,-0.00721460755392909,0.020021765284752472
1772457158504442000,3.360442138671875,0.036571781072020526,-0.011125588718894868,0.008362270618556067
1772457158514460200,3.370460205078125,0.02744330272078514,0.0005454867872409522,0.015041629651468246
1772457158524479200,3.380479248046875,0.026994389909505843,-0.022646241169981658,0.014149713179888203
1772457158534497300,3.390497314453125,0.0504851556122303,-0.016717746170144526,0.012243395501375197
1772457158544516000,3.40051611328125,0.02459726563990116,-0.022071784016583114,0.008116168636688962
1772457158554534100,3.4105341796875,0.03178337775170803,-0.006046038698591292,0.001965737981861457
1772457158564552200,3.42055224609375,0.04525251565575599,-0.00015190262608230114,-0.0008650375978089868
1772457158574571000,3.430571044921875,0.06021686055362224,-0.01600541491601616,-0.0026089769219979644
1772457158584589300,3.44058935546875,0.042110125976800916,-0.009264288359042257,0.013938134522130712
1772457158594608000,3.450608154296875,0.04524900852441788,-0.01430655684256926,0.024907473233388735
1772457158604626200,3.460626220703125,0.033581367084383966,-0.01655040851291269,0.007417820242140442
1772457158614644000,3.47064404296875,0.04495440949201584,-0.016680446367058902,0.029597037555417045
1772457158624663000,3.4806630859375,0.04764905540347099,-0.00734422528296709,0.018202623566193506
1772457158634681300,3.490681396484375,0.04181377337872982,-0.00897146115861833,0.012843891278328374
1772457158644700200,3.5007001953125,0.029994156247377394,0.02113925240682438,0.011888124923454597
1772457158654718200,3.51071826171875,0.04151742078065872,-0.00813590538362041,0.0202236171329394
1772457158664736000,3.520736083984375,0.04690262095034122,0.002104406667035073,0.02715336159719154
1772457158674755000,3.530755126953125,0.04884907884299755,-0.007257168054021894,0.010214538288582115
1772457158684773000,3.540773193359375,0.042863574692606925,-0.021466438534576443,0.021130274515924974
1772457158694792000,3.5507919921875,0.056035190954804415,0.004899225017335265,0.020028386821784077
1772457158704810200,3.560810302734375,0.03388941012024879,-0.016009543101862072,0.0003688698450103402
1772457158714828300,3.570828369140625,0.056934185621142386,-0.0019270225398242472,0.004874757296359166
1772457158724847000,3.58084716796875,0.059627662488818164,0.0024251630540005863,-0.0032426899819634853
1772457158734865200,3.590865234375,0.04211597119569778,-0.001117076130118221,0.008902341445162892
1772457158744884200,3.60088427734375,0.03972410762310028,0.009943703724257647,0.013187179157510399
1772457158754902000,3.610902099609375,0.05483809012472629,0.007184522942919284,0.004217498964024707
1772457158764920300,3.62092041015625,0.04735737898051738,-0.006588164484966546,0.01822592224339023
1772457158774939100,3.630939208984375,0.03942483241558075,-0.0036634544109925625,-0.001662243256950751
1772457158784957200,3.640957275390625,0.04795534487366676,-0.02112049290742725,-0.005416243761917576
1772457158794976300,3.650976318359375,0.03792962542176247,-0.01695310756228864,0.0016632387707941232
1772457158804994000,3.660994140625,0.04107084605693817,-0.0139388925739564,0.02922767452006228
1772457158815012000,3.67101220703125,0.035680969712138175,-0.013129165359959005,0.0022017386948224157
1772457158825030700,3.68103076171875,0.041814357900619506,-0.008857241928111761,0.011026539658056571
1772457158835048700,3.691048583984375,0.038224224454164506,-0.005378825227823108,0.008476298052817582
1772457158845067800,3.70106787109375,0.06381167017519473,-0.010056918307766317,0.0012057407942600547
1772457158855085600,3.71108544921875,0.05049450796246528,-0.011853044476918876,-0.022689240061491728
1772457158865103600,3.721103515625,0.030896073523163793,0.004295651367306709,-0.012463568457541986
1772457158875122400,3.731122314453125,0.0437666610121727,-0.004509568112622946,0.013248362159682437
1772457158885140700,3.741140625,0.04900748427510261,0.007069317331723868,0.027924519499624146
1772457158895159800,3.751159912109375,0.06142506729960441,-0.004381028095819056,0.0187885702279862
1772457158905177600,3.761177490234375,0.04556874199807644,-0.012560041968803852,0.02033752583619207
1772457158915195600,3.771195556640625,0.037490064960718154,-0.006192644095048308,0.026281583731342106
1772457158925214700,3.781214599609375,0.04257657444477081,-0.000699088180065155,0.0030826131825800983
1772457158935232500,3.791232421875,0.041082536494731904,-0.006394249348063021,0.014988136765407398
1772457158945251600,3.80125146484375,0.041379473614692686,-0.010336904292926191,0.01816116817779839
1772457158955269600,3.81126953125,0.037190205231308934,-0.014045129427406936,0.01052487374623306
1772457158965287700,3.82128759765625,0.04033259491026401,-0.017800920030660927,-0.011157646091282367
1772457158975306800,3.831306640625,0.04556874199807644,-0.013803173897694795,0.0046808604257646946
1772457158985324500,3.841324462890625,0.036142742004990576,0.0043431072382256386,0.017578829112043604
1772457158995343600,3.851343505859375,0.04168050238788128,0.0039405725856311614,0.014762931441096588
1772457159005361700,3.861361572265625,0.04063596177101135,-0.0005834807100705802,0.013704965087072923
1772457159015379700,3.871379638671875,0.037490064960718154,0.00366856897752732,0.008511506363516674
1772457159025398800,3.881398681640625,0.05036240601539611,-0.007274484515003859,0.006131981682684272
1772457159035416600,3.89141650390625,0.043480829808115955,-0.010365765061229467,0.00858669049157761
1772457159045435600,3.901435546875,0.04363105193376541,0.0046302353502251205,0.014837594979349522
1772457159055453400,3.911453369140625,0.040186464437842365,-0.00981518197376281,0.02540875555272214
1772457159065471700,3.9214716796875,0.05410100802183151,-0.0037441549643874167,0.004550037120329216
1772457159075490800,3.93149072265625,0.036893852633237835,-0.004443992063123733,0.004433425003336742
1772457159085508600,3.941508544921875,0.04393032714128494,-0.016913981128297745,-0.0030933903049211947
1772457159095527700,3.951527587890625,0.04033785560727119,-0.005629420721717179,0.006995466644223779
1772457159105545700,3.961545654296875,0.04841945525407791,-0.01997201699204743,0.011242849289858713
1772457159115564500,3.971564453125,0.043778935971856114,-0.010759257890842854,-0.01286763748009689
1772457159125582600,3.98158251953125,0.05769347955584526,0.0015940277257934213,-0.006731335815321654
1772457159135600600,3.9916005859375,0.05185585944354534,-0.018365020186826585,0.009953311802819371
1772457159145619700,4.00161962890625,0.05140519306659698,0.015427158370334653,0.008690863252105191
1772457159155637800,4.0116376953125,0.03883504982888698,-0.006137625972181558,0.0019442933350335805
1772457159165655600,4.021655517578125,0.0415314493060112,-0.01843161914963275,0.022127404927648604
1772457159175674600,4.031674560546875,0.04422784878313541,-0.0018982165704481302,0.012799686810420825
1772457159185692700,4.041692626953125,0.03091068657040596,-0.006649374886602163,0.0012324370049405843
1772457159195711500,4.05171142578125,0.02642331202328205,-0.009919592196308075,0.0381711973589845
1772457159205729800,4.061729736328125,0.0413876569211483,-0.0012848887113854287,0.025743129473086445
1772457159215748600,4.07174853515625,0.043185061731934545,-0.01023543494613841,0.004151137463236227
1772457159225766700,4.0817666015625,0.036599838122725485,0.008380564327072352,0.0034415644217748193
1772457159235784700,4.09178466796875,0.042433366581797596,0.004732800675556063,0.011016739783249794
1772457159245803500,4.101803466796875,0.039890696361660954,-0.00922090587504208,0.005808613213524222
1772457159255821800,4.11182177734375,0.03974222780168056,-0.0003166830000467598,0.006348556175967678
1772457159265841000,4.1218408203125,0.054556935095787046,-0.01621576973106712,0.014700451530981809
1772457159275858700,4.131858642578125,0.04423077139258384,-0.014768456999585032,0.023222141361795363
1772457159285876700,4.141876708984375,0.039144846430420877,-0.002517864572443068,0.009801966299163177
1772457159295895600,4.1518955078125,0.0397404742360115,0.004133684004936367,0.0034332075853832065
1772457159305913600,4.16191357421875,0.03944529068171978,-0.012529044042341411,0.018869316447153686
1772457159315932700,4.1719326171875,0.0428863710463047,-0.0013322349844500422,0.0013614884783979505
1772457159325950700,4.18195068359375,0.04393149618506431,0.00023780907755717632,0.0066924377101939166
1772457159335968800,4.19196875,0.03614917174577713,-0.008042728941142559,-0.0015688750182278454
1772457159345987600,4.201987548828125,0.04482873728573322,-0.0017616576439701019,0.005695572159951552
1772457159356005600,4.212005615234375,0.04617430667579174,-0.008989636136125773,0.022310232414957134
1772457159366024700,4.222024658203125,0.04467793063819408,-0.007392466605175286,-0.004416967058880255
1772457159376042500,4.23204248046875,0.03509937043190002,-0.012524842791259289,0.007369697650941088
1772457159386060800,4.242060791015625,0.04916705875098705,-0.008843231669068335,0.004484634600766003
1772457159396079600,4.25207958984375,0.02941840218603611,0.005958999735955149,-0.0029500180451665073
1772457159406097700,4.26209765625,0.04857318451106548,0.002235577032342553,0.011782819651765749
1772457159416116700,4.27211669921875,0.04019640130996704,0.004187934942822903,0.016310644940286875
1772457159426134500,4.282134521484375,0.024933365726470945,-0.005729099970217794,0.008044345509493723
1772457159436152600,4.292152587890625,0.04513678032159805,-0.005215652289055288,0.001685770263010636
1772457159446171600,4.302171630859375,0.03900339213311672,-0.0004144442860968411,0.00432474959762767
1772457159456189700,4.312189697265625,0.02239303359389305,-0.012113065386284143,0.017940100172488017
1772457159466208800,4.322208740234375,0.03915302973687648,-0.0026854944906197485,0.0072141508962027725
1772457159476226600,4.3322265625,0.052019525572657585,-0.020687362187169493,0.012808025380503385
1772457159486244600,4.34224462890625,0.041837154254317284,-0.007846128656808286,-0.00032726832614280284
1772457159496263700,4.352263671875,0.040784430330991744,-0.006964121657889336,0.01573601425695233
1772457159506281700,4.36228173828125,0.05095511121153831,-0.00947763884877786,-0.005374861438758671
1772457159516300800,4.37230078125,0.03225041074156761,-0.012648797964490949,-0.004411304503073915
1772457159526318600,4.382318603515625,0.036138065829873084,-0.007073408984951675,-0.012810473065916449
1772457159536336600,4.392336669921875,0.05125146380960941,0.00576654590377584,0.008180274248309433
1772457159546355700,4.402355712890625,0.0376402870863676,-0.0006228628723882138,0.006206471691001207
1772457159556373500,4.41237353515625,0.04497662132382393,-0.0025294271460734306,0.005589956361008808
1772457159566392600,4.422392578125,0.048121933612227434,0.007331219670921564,0.005546071553509682
1772457159576410600,4.43241064453125,0.05440554392635822,-0.009028963499516249,0.013634146606875583
1772457159586428700,4.4424287109375,0.03734685709774494,-0.01368729243306443,0.012324333516787737
1772457159596447700,4.45244775390625,0.043183308166265484,-0.006501472582202405,-0.0003638100774027407
1772457159606465500,4.462465576171875,0.039891865405440326,-0.001705105151142925,0.03275761134503409
1772457159616484600,4.472484619140625,0.03734159640073776,-0.0002919138849712908,0.016048906997870652
1772457159626502700,4.482502685546875,0.030160160464048385,-0.015518855241779237,0.018025906159263104
1772457159636520700,4.492520751953125,0.04303074795305729,-0.004427954243775457,0.01707551009925082
1772457159646539800,4.502539794921875,0.042133506852388376,-0.005630407102406024,0.011344921424845233
1772457159656557600,4.5125576171875,0.050368251234292984,-0.014017017577774822,0.02357441626503132
1772457159666576600,4.52257666015625,0.03735153327286243,-0.0010894940034486354,0.012664771851757541
1772457159676594700,4.5325947265625,0.043486675027012825,-0.00009991671051830052,0.020723757807957006
1772457159686612500,4.542612548828125,0.029716508349776266,0.009959686744678765,0.027827205738145858
1772457159696631600,4.552631591796875,0.022833763098716736,-0.009953896324709057,0.02832362921927124
1772457159706649600,4.562649658203125,0.051714405146241184,-0.011909578703437,0.01612677627336234
1772457159716668700,4.572668701171875,0.05245733246803284,-0.014601722130551933,0.005238019384490326
1772457159726686700,4.582686767578125,0.03944119902849197,0.00027649712013080716,0.014101435325061902
1772457159736704500,4.59270458984375,0.02926584197282791,-0.01693513351418078,0.003655261971382424
1772457159746723600,4.6027236328125,0.03180851219296455,-0.005414846389275044,0.012841881984332575
1772457159756742000,4.612741943359375,0.03270575329363346,-0.013599230557121336,0.0031204335754737257
1772457159766760700,4.6227607421875,0.038840310525894164,-0.012723470635898411,0.00563307398352772
1772457159776778800,4.63277880859375,0.030012276425957676,-0.013844236560445278,0.0016434472249355165
1772457159786796500,4.642796630859375,0.05006546889543533,-0.010629402699787169,0.004361263949424028
1772457159796815600,4.652815673828125,0.039887189230322834,-0.012669749420974402,0.007919129960937426
1772457159806833700,4.662833740234375,0.02582242352068424,0.001274202920589596,0.025138642507605252
1772457159816852500,4.6728525390625,0.038837972438335415,-0.0008918525394983589,0.013498482729541137
1772457159826870800,4.682870849609375,0.04512216727435588,-0.0038570407543331384,0.007426460206322372
1772457159836888600,4.692888671875,0.042428105884790415,-0.00894161400962621,0.009789874002570286
1772457159846907600,4.70290771484375,0.041082536494731904,-0.017455485860165206,0.002963443782320246
1772457159856925400,4.712925537109375,0.033597733697295185,-0.009933109265007078,-0.003973515874007716
1772457159866944500,4.722944580078125,0.04422083452045917,0.008835249292012303,0.008210705919191241
1772457159876962600,4.732962646484375,0.04586918624937534,-0.013455894829984754,-0.003715878717973828
1772457159886980600,4.742980712890625,0.04856441668272018,-0.02614692450100556,0.009706744030071423
1772457159896999700,4.752999755859375,0.04302899438738823,-0.025833639034442604,0.014404117199219763
1772457159907017500,4.763017578125,0.038839726004004475,-0.0025972316852770744,0.0037642022385727613
1772457159917036500,4.77303662109375,0.044377486386895176,0.011824329839088023,0.008671692760754376
1772457159927054600,4.7830546875,0.04423018687069416,0.001432389156986028,0.014723394015152007
1772457159937072600,4.79307275390625,0.06518062044084072,-0.002757774275541305,0.005367244387883692
1772457159947091500,4.803091552734375,0.05351005639135837,0.005216382941417396,0.020371893896674736
1772457159957109500,4.813109619140625,0.03750175539851188,-0.003522584635578096,0.011914547139499335
1772457159967128600,4.823128662109375,0.03151742029190063,-0.0009644428516738116,-0.0028356709504965692
1772457159977146600,4.833146728515625,0.06159340960383415,-0.014484945616777985,0.016772444632602853
1772457159987164400,4.843164306640625,0.043487844070792196,-0.01745347656616941,0.004643761552078649
1772457159997183500,4.85318359375,0.017446224841475486,-0.007401143101975321,0.012440781236998736
1772457160007201800,4.863201904296875,0.04528232627213001,-0.007584701241645961,0.0037945699773728847
1772457160017220600,4.873220703125,0.04229015871882438,-0.003490107138082385,0.023369157750206065
1772457160027238700,4.88323876953125,0.02478197455704212,-0.015224603269249199,0.02073912890702486
1772457160037256400,4.89325634765625,0.04932078800797462,-0.019351053815800694,-0.00394197909142822
1772457160047275500,4.903275634765625,0.04093991315364837,0.0045341180319897825,0.01465381764397025
1772457160057293600,4.91329345703125,0.041841830429434776,-0.006100746294204145,0.02878581250407733
1772457160067312400,4.9233125,0.0375011708766222,0.003403415235318243,0.0029296145779546348
1772457160077330700,4.93333056640625,0.0502191981524229,-0.011746533628832549,0.020255994165735317
1772457160087348500,4.943348388671875,0.06159282508194446,-0.009140680245682596,0.007962238450301811
1772457160097367600,4.953367431640625,0.05650631559789181,-0.004946753953490406,0.008336058465065434
1772457160107385600,4.963385498046875,0.03166647337377071,-0.0054167095527984195,0.008970246449066325
1772457160117404400,4.973404296875,0.05411211393773555,-0.016067611698340624,0.03402581378309987
1772457160127422500,4.98342236328125,0.04364040428400039,-0.02374265810456127,0.03184741029809229
1772457160137440800,4.993440673828125,0.03272095086276531,-0.0008162117537111043,0.019221865345025433
1772457160147459600,5.00345947265625,0.03271861277520657,0.00030300153456628323,0.01293282080395147
1772457160157477600,5.0134775390625,0.04723287581801414,-0.0034796953419223425,0.016530078110937027
1772457160167496700,5.02349658203125,0.05007774385511875,-0.013007804002612828,0.02646663970835507
1772457160177514500,5.033514404296875,0.036758243554830546,-0.009932707406207919,0.001011478597484529
1772457160187532500,5.043532470703125,0.043942017579078674,-0.0008858611901290714,0.0044164464690722525
1772457160197551600,5.053551513671875,0.052474283602833745,0.0038850064734928308,0.020842242221627384
1772457160207569700,5.063569580078125,0.03332300840914249,-0.009494315988942981,0.022220937563152982
1772457160217588700,5.073588623046875,0.04514087197482586,-0.005922229655832052,0.013568652755767106
1772457160227606500,5.0836064453125,0.054421326017379756,-0.008073690334986896,0.00930262020858936
1772457160237624600,5.09362451171875,0.04873685064017772,-0.010714286237955093,0.016669751443108543
1772457160247643400,5.103643310546875,0.04125321688652038,-0.006290843772515654,0.011288268467318266
1772457160257661700,5.11366162109375,0.03840951789319515,-0.015091971599217503,0.011770416827918961
1772457160267680800,5.1236806640625,0.04319558312594891,-0.0060059258839115495,0.016626250228099524
1772457160277698600,5.133698486328125,0.06548866347670555,-0.005250577471964061,0.012135587745346128
1772457160287716600,5.143716552734375,0.043641573327779765,-0.007793759148754179,0.01482876321892254
1772457160297735400,5.1537353515625,0.02104804872572422,-0.0032320772564038633,0.00990105189261958
1772457160307753500,5.16375341796875,0.039003976655006406,-0.013266893330216406,0.022293546141637487
1772457160317772500,5.1737724609375,0.050822424742579454,-0.0007438771698623896,0.016752150763245297
1772457160327790600,5.18379052734375,0.029272856235504147,0.0013258417762815951,0.01635816474328749
1772457160337808600,5.19380859375,0.04722703059911727,-0.010152779897674918,0.00888318922012113
1772457160347827700,5.20382763671875,0.04423486304581165,-0.0009097169897519052,0.011999321079812943
1772457160357845500,5.213845458984375,0.03316168036758899,-0.017401874243095517,0.010725145558686927
1772457160367864600,5.223864501953125,0.04438391612768173,-0.004895078565180302,-0.0022403993379324673
1772457160377882400,5.23388232421875,0.0469295089572668,-0.003653992462903261,0.014298811927530913
1772457160387900700,5.243900634765625,0.048129532396793365,-0.002218552832305431,0.013455693900585174
1772457160397919700,5.253919677734375,0.033465047228336334,-0.0006741181355901062,0.011879640222899616
1772457160407937500,5.2639375,0.050072483158111566,-0.009874565744493156,0.01913480811608024
1772457160417956600,5.27395654296875,0.04483224441707134,-0.006666472151875495,0.022531327819731085
1772457160427974400,5.283974365234375,0.03720248019099235,-0.005104976722504944,0.016411036574840544
1772457160437993500,5.293993408203125,0.030468203499913214,-0.014321462150756269,0.010829226987669244
1772457160448011500,5.304011474609375,0.03495850065648556,-0.012831972511671483,0.02697674465496093
1772457160458029600,5.314029541015625,0.05380991612076759,-0.008623086112365126,0.01770477531296201
1772457160468048600,5.324048583984375,0.033306641796231266,-0.014858473370596766,0.01059150924165733
1772457160478066700,5.334066650390625,0.033604747959971426,-0.00995093718264252,0.014172947925003244
1772457160488084500,5.34408447265625,0.04707213229835033,0.005346639991272241,0.020815043687447906
1772457160498103600,5.354103515625,0.04976444012224674,-0.006771960086654871,-0.0048518604779615995
1772457160508121600,5.36412158203125,0.03764087160825729,-0.010556666257139295,0.019976729699783025
1772457160518140700,5.374140625,0.027612229546904562,0.0021880115635693072,0.01710446219909936
1772457160528158700,5.38415869140625,0.04317161772847175,-0.013159633563458919,0.02510311453649774
1772457160538177500,5.394177490234375,0.04975859490334987,0.003865370191261172,0.004645295922039077
1772457160548195600,5.404195556640625,0.043323008897900576,0.002945588465221226,-0.003660869728261605
1772457160558213400,5.41421337890625,0.05230301868915557,-0.01091678654011339,0.013930617935955524
1772457160568232400,5.424232421875,0.05874035826027393,-0.017258830776903777,0.008590298087615519
1772457160578250800,5.434250732421875,0.05006196176409721,-0.022187994274776426,-0.0018816855607554316
1772457160588269600,5.44426953125,0.0419803621172905,-0.024321572237368673,-0.0021803397137671707
1772457160598287600,5.45428759765625,0.05604512782692909,-0.014221143581438809,0.004002769367955625
1772457160608305400,5.464305419921875,0.05170855992734432,-0.0028954657131806012,0.028908900027628987
1772457160618324500,5.474324462890625,0.05425298371315002,-0.013986585906893015,0.018213647283706814
1772457160628342500,5.484342529296875,0.05664718537330627,-0.005888692712411284,0.011429275240050628
1772457160638361300,5.494361328125,0.036897359764575956,0.009484616578835994,-0.002794151630019769
1772457160648379600,5.504379638671875,0.03824000654518604,-0.010811042877007276,0.0031731866760179397
1772457160658397700,5.514397705078125,0.03599485796689987,-0.018346589480992406,0.027017615521466358
1772457160668416500,5.52441650390625,0.028814591073989867,-0.006128072692546993,0.003554788138438016
1772457160678434600,5.5344345703125,0.044375148299336434,-0.005999459610506892,0.008493331386009231
1772457160688453600,5.54445361328125,0.045720717689394945,-0.003551500202808529,-0.0006474401912186295
1772457160698471400,5.554471435546875,0.0482674795627594,0.005550565065536648,0.014888384451670572
1772457160708489700,5.56448974609375,0.044074704048037525,-0.018363869409356266,0.015056808954291045
1772457160718508500,5.574508544921875,0.0464677366644144,-0.015282178675383328,-0.0031948139859363433
1772457160728526600,5.584526611328125,0.030012276425957676,-0.0008228241575881838,0.003908286884380504
1772457160738545700,5.594545654296875,0.041082536494731904,-0.013563611254468559,0.007459156899526715
1772457160748563500,5.6045634765625,0.044674423506855965,-0.00846473547918722,0.016586155679728834
1772457160758581800,5.614581787109375,0.049015083059668535,-0.010687763557210564,0.02758504014587961
1772457160768600600,5.6246005859375,0.036893852633237835,0.0043913668267428875,-0.0023305801057256757
1772457160778618600,5.63461865234375,0.039433600243926045,-0.004874876027368009,0.03080896149529144
1772457160788637700,5.6446376953125,0.02926058127582073,-0.016464556860364972,0.025617365935258565
1772457160798655500,5.654655517578125,0.03988543566465377,-0.011370375526510178,0.0005209277347195893
1772457160808673500,5.664673583984375,0.04138473431169987,-0.014834526239428669,0.016353114108834416
1772457160818692600,5.674692626953125,0.04093815958797931,-0.010250395053252577,0.010667497087316588
1772457160828710700,5.684710693359375,0.036000703185796734,-0.003137421242892742,0.008509140876494348
1772457160838729700,5.694729736328125,0.04288111034929752,-0.015020952189620584,0.01762138961213641
1772457160848747500,5.70474755859375,0.04542261152565479,-0.013303553812485188,0.00353982803132385
1772457160858765600,5.714765625,0.03629237960875034,0.0014882475300692021,0.010578969420492648
1772457160868784600,5.72478466796875,0.037787586602568625,-0.011420808805804698,0.010675406399136408
1772457160878802400,5.734802490234375,0.031053309911489486,-0.011561331521347164,-0.009997945528989657
1772457160888821500,5.744821533203125,0.048857846671342846,-0.018102350662648675,-0.00251838516225107
1772457160898839600,5.754839599609375,0.040028643527626986,-0.007931103526521474,0.006550873815035447
1772457160908857600,5.764857666015625,0.03119768681824207,-0.0061813189834356306,0.0018266400384251028
1772457160918876700,5.774876708984375,0.0319458748370409,-0.00871302941814065,0.01643381466222927
1772457160928894500,5.78489453125,0.043314825591444964,-0.004528510275110602,-0.0038723479213193055
1772457160938913500,5.79491357421875,0.05379121142029762,-0.00926255305968225,0.01514917254601605
1772457160948931300,5.804931396484375,0.03957622358500957,-0.001036119848396629,0.0027824429259169846
1772457160958949600,5.81494970703125,0.048100890824198723,-0.010006521561089903,0.005676383402291685
1772457160968968700,5.82496875,0.05258884989321232,-0.008839066950604319,0.019539342929515986
1772457160978986500,5.834986572265625,0.044807109975814816,-0.007208177813142537,0.013711869751894847
1772457160989005600,5.845005615234375,0.03837210849225521,-0.0012963964860886335,-0.006261115354532376
1772457160999023600,5.855023681640625,0.055882046219706535,-0.012290851372294128,0.00038097127475775775
1772457161009041700,5.865041748046875,0.03448679149150848,-0.0027609343470074233,0.012819889348233119
1772457161019060700,5.875060791015625,0.04989771111309528,-0.014338285421393811,0.018153916453104466
1772457161029078500,5.88507861328125,0.03657528820335865,-0.02105062427530065,0.014125683850329368
1772457161039097600,5.89509765625,0.04630173244774341,-0.0138237965606153,0.01015387587621808
1772457161049115600,5.90511572265625,0.045404491347074506,-0.004364076961018145,-0.0010670812422409652
1772457161059133400,5.915133544921875,0.045858664855360984,-0.008790314171742647,-0.00042956878999248144
1772457161069152500,5.925152587890625,0.04077449345886707,-0.013486070772539823,0.005673077200353145
1772457161079170600,5.935170654296875,0.04601414767801761,-0.018512392768263816,0.0052751091250218445
1772457161089189600,5.945189697265625,0.03988309757709503,-0.011194014312606304,0.011618961726408451
1772457161099207700,5.955207763671875,0.04227788375914097,-0.00821238641962409,-0.009245537992799655
1772457161109225500,5.9652255859375,0.04422551069557667,0.0007264693773351609,0.013041487076506018
1772457161119244500,5.97524462890625,0.05215922630429268,0.003700114893261343,0.019754730112710967
1772457161129262600,5.9852626953125,0.040189971569180485,-0.008697685718536376,-0.012445411746343596
1772457161139281400,5.995281494140625,0.03540273729264736,-0.0022258593559265137,0.009996356360102071
1772457161149299700,6.0052998046875,0.04093757506608963,-0.007759162759408354,0.006564080356480553
1772457161159317500,6.0153173828125,0.043327100551128386,-0.007170311754476279,0.01321104409028776
1772457161169336600,6.025336669921875,0.04391863670349121,-0.0011241086591035126,0.016835947456024587
1772457161179354600,6.035354736328125,0.050500937703251834,-0.011161208021547644,0.024945083563728255
1772457161189373400,6.04537353515625,0.04705576568543911,-0.013322039317246525,0.0036676739283837377
1772457161199391500,6.0553916015625,0.04660042313337326,-0.01385842948257923,0.007655419257143512
1772457161209409500,6.065409423828125,0.041515082693099975,0.0006043043023906648,0.019780978798819706
1772457161219428600,6.0754287109375,0.0283469735622406,-0.0013537161638960242,0.012311958092404528
1772457161229446700,6.08544677734375,0.047798693007230754,0.0009323124140501022,0.006136000270675867
1772457161239465500,6.095465576171875,0.03432955510318279,-0.015585435938276349,0.0010137070871889592
1772457161249483500,6.1054833984375,0.04420680599510669,0.006891805340349674,0.010042506189923733
1772457161259501600,6.11550146484375,0.04555003729760647,-0.003995462844334542,0.024487192861549555
1772457161269520600,6.125520751953125,0.04435176742374897,-0.008690872385259717,0.008189453068608417
1772457161279538700,6.13553857421875,0.04854337389469147,-0.010865860070474445,-0.0007952968298457563
1772457161289557500,6.1455576171875,0.02714695012271404,-0.013076649721432477,0.019936534686712547
1772457161299575600,6.155575439453125,0.0350783276438713,-0.016962788706086574,0.0018771098503377287
1772457161309594600,6.1655947265625,0.0374707757383585,-0.01649761887975037,0.007366866373037919
1772457161319612400,6.1756123046875,0.03971533979475498,-0.013662687714770435,0.0381971903167665
1772457161329631500,6.185631591796875,0.03612345278263092,-0.014758008670806884,0.008030965438112617
1772457161339649800,6.19564990234375,0.02879179472029209,-0.012919431599415838,-0.000703024569666013
1772457161349667600,6.20566748046875,0.04390753078758716,0.0021445925469510256,0.011580995203042403
1772457161359686700,6.215686767578125,0.04225976358056068,-0.00658697717487812,0.020694842240726576
1772457161369704400,6.225704345703125,0.04764554827213287,-0.007390840903669595,0.0072020312001463025
1772457161379723500,6.2357236328125,0.03791793498396873,-0.0037370311038568615,0.0009867551481816917
1772457161389741600,6.245741455078125,0.04674480004012584,0.002540003339014947,-0.0070443107546307145
1772457161399759600,6.255759521484375,0.04644727839827537,-0.0038421354461461305,0.011091732115065677
1772457161409778700,6.26577880859375,0.03746843765079975,0.002020162449683994,0.014257566601689904
1772457161419796500,6.27579638671875,0.042402971443533895,-0.004240560179203748,0.01721865403014235
1772457161429815600,6.285815673828125,0.04674363099634647,-0.005860544330161065,0.006323723128810525
1772457161439833600,6.29583349609375,0.02803717696070671,-0.006187072870787233,0.013601632576761766
1772457161449851400,6.305851318359375,0.03881166895329952,-0.012750961431022733,0.021845574045274405
1772457161459870500,6.315870361328125,0.03132745067775249,0.002125559052918106,-0.004965933577995747
1772457161469888500,6.325888427734375,0.041356092739105225,0.0018926088135689497,0.005002274399856105
1772457161479907600,6.335907470703125,0.048988195052742954,-0.01170758985793218,-0.006062715838756412
1772457161489925600,6.345925537109375,0.04180325198471546,-0.0072145344886928794,-0.002667721371911466
1772457161499943400,6.355943359375,0.04314589876532554,-0.006434161233343183,0.011899687497084959
1772457161509962500,6.36596240234375,0.03027881840765476,-0.005330730036087334,0.0018981526383664458
1772457161519980500,6.37598046875,0.04644318674504757,-0.014347710836865007,0.01841021103542298
1772457161529999600,6.38599951171875,0.04614274249374866,-0.011597206552326678,-0.008435737713566049
1772457161540017700,6.396017578125,0.04285246877670288,-0.027143990980647504,0.008740264484938233
1772457161550035500,6.406035400390625,0.04973638307154178,-0.007973755358159541,0.0132378133662045
1772457161560054500,6.416054443359375,0.0392611662864685,-0.0047165436604991555,0.011772142994124442
1772457161570072600,6.426072509765625,0.035375849285721774,-0.008862922750227153,0.005732543169474229
1772457161580091400,6.43609130859375,0.03103402068912983,-0.002055909616500139,0.008068475303752346
1772457161590109700,6.446109619140625,0.051235681718587875,-0.01685341004747897,0.014829082879330963
1772457161600127500,6.45612744140625,0.034622985091805454,-0.017179554995615035,0.004003847080189735
1772457161610146600,6.466146484375,0.05213175377547741,-0.02430063904719427,-0.0009692377578001469
1772457161620164600,6.47616455078125,0.05003741184473037,-0.004919628484547138,0.008668340893043205
1772457161630183400,6.486183349609375,0.043452772757411,-0.0018708171068690716,0.012239596109092235
1772457161640201500,6.496201416015625,0.045698505857586856,-0.005256258294079452,0.013542504534358159
1772457161650219800,6.5062197265625,0.0428512997329235,0.003154061850439757,0.017951425284100694
1772457161660238600,6.516238525390625,0.041353754651546476,-0.006039243631623685,0.024553097704611716
1772457161670256600,6.526256591796875,0.0506289479970932,-0.0023778898461721838,0.014321845743246376
1772457161680275700,6.536275634765625,0.047184945023059845,-0.016822558251488953,0.011894993055658415
1772457161690293500,6.54629345703125,0.05196984121203422,0.00375133362384513,0.014907582342484965
1772457161700311600,6.5563115234375,0.04598082993030548,0.001421886029280722,0.012511608850350603
1772457161710330400,6.566330322265625,0.044783729100227355,-0.002879354828596115,0.015890328035829588
1772457161720348700,6.5763486328125,0.03864741830229759,0.0033486528407782315,0.011291793864965437
1772457161730367700,6.58636767578125,0.05121873058378696,-0.010395575677603483,0.017047453048545866
1772457161740385500,6.596385498046875,0.04373685039579868,-0.008878394313994795,0.014468725134339182
1772457161750403600,6.606403564453125,0.04882102179229259,-0.015368998442310839,0.006975163641711696
1772457161760422400,6.61642236328125,0.04717851528227329,-0.01060814071604982,0.004333499159663915
1772457161770440700,6.626440673828125,0.04269055621325969,-0.008434249009378255,0.004411825092881918
1772457161780459500,6.63645947265625,0.038052959540486334,-0.0073655785982497035,0.010331013408256694
1772457161790477600,6.6464775390625,0.029221418309211728,0.0027522395838983356,0.00017248875638470053
1772457161800495600,6.65649560546875,0.049125557696819304,-0.009664083065278828,0.005598979917680844
1772457161810514400,6.666514404296875,0.04688391624987125,0.00010132321631535887,0.023855936620151622
1772457161820532500,6.676532470703125,0.03147007401883602,-0.009098503338079898,0.007890205260552466
1772457161830551600,6.686551513671875,0.038653848043084145,-0.014431078271381556,0.001903413335373625
1772457161840569900,6.69656982421875,0.03715513391792774,-0.006941380103118717,0.021283629313576965
1772457161850587600,6.706587646484375,0.039250644892454147,-0.002323730239830911,0.01987877661748789
1772457161860606700,6.716606689453125,0.04328852210640907,0.006389664504490793,0.006727627754583954
1772457161870624500,6.72662451171875,0.0435877973139286,0.000573251577001065,0.017911202871566636
1772457161880643600,6.7366435546875,0.04209200579822063,-0.017606420371867715,0.028305088915582744
1772457161890661600,6.74666162109375,0.04433773889839649,-0.005268368856981396,0.019900303462706506
1772457161900679700,6.7566796875,0.045239656174182886,-0.0038127632211893796,0.012223896216461434
1772457161910698800,6.76669873046875,0.04928454765081405,-0.003763736447691917,0.011177583767613396
1772457161920716800,6.776716796875,0.04284837712347507,-0.008592289115302264,-0.001775247777905315
1772457161930735600,6.786735595703125,0.041948213413357735,-0.00376443056743592,0.00873065640637651
1772457161940753700,6.796753662109375,0.04134615586698055,-0.00958018590779975,0.02845773132718168
1772457161950772700,6.806772705078125,0.04882452892363071,-0.018140362851787356,0.018356855146680028
1772457161960790500,6.81679052734375,0.03775193076729774,0.0018633279201574623,0.013102697478141636
1772457161970808800,6.826808837890625,0.0358019657433033,-0.010946487558633089,-0.005380606192955747
1772457161980827600,6.83682763671875,0.031005963638424873,-0.014671554230060427,0.012646386811695992
1772457161990845700,6.846845703125,0.05165419939160347,-0.0023376491673290727,0.0006714969202410429
1772457162000863500,6.856863525390625,0.042377252480387685,-0.020696203080751,0.007969234446668997
1772457162010882600,6.866882568359375,0.041780455631017684,0.001982679983507842,0.025339151782076803
1772457162020900600,6.876900634765625,0.04402443516552448,-0.009265895794238895,0.018271661081258207
1772457162030919400,6.88691943359375,0.027113047853112218,-0.0096706589365378,0.00781341369729489
1772457162040937700,6.896937744140625,0.04447393249869346,-0.007610511536337435,0.003977945453952998
1772457162050956800,6.906956787109375,0.06362929934561252,-0.0015543533025309442,0.017423556351941077
1772457162060974600,6.916974609375,0.03250409324169159,-0.006370320483203977,0.01954156228606589
1772457162070992600,6.92699267578125,0.023524667972326278,-0.01454080398986116,0.00793461979101412
1772457162081011500,6.937011474609375,0.060035658767819404,-0.01250447585666552,0.015031044325372203
1772457162091029800,6.94702978515625,0.040135026511549945,-0.014094996451120823,0.0112773634808138
1772457162101048800,6.957048828125,0.030556466305255887,-0.017196451331488786,0.01225465668090619
1772457162111066600,6.967066650390625,0.0558440522968769,-0.005585709444154053,0.010188874124363064
1772457162121084700,6.977084716796875,0.0446247391462326,-0.011861994968354701,0.017067317659640684
1772457162131103700,6.987103759765625,0.03744154964387417,-0.008159688118007033,0.01677954109366983
1772457162141121500,6.99712158203125,0.0408820454865694,0.0005822751336731016,0.012228179665934294
1772457162151140600,7.007140625,0.029208558827638623,-0.001868990475963801,0.02355671621155925
1772457162161158700,7.01715869140625,0.03953472253084182,-0.01995448133535683,0.013896889196289702
1772457162171176700,7.0271767578125,0.045070729348063464,-0.012490611728094517,0.014036936987796797
1772457162181195800,7.03719580078125,0.044319618719816205,-0.010085450282506644,0.01748898627096787
1772457162191213600,7.047213623046875,0.04282265816032886,-0.017311456013284623,0.007778917772648855
1772457162201232600,7.057232666015625,0.04895955348014831,-0.008878777906484902,0.01486069272714667
1772457162211250400,7.06725048828125,0.044621232014894485,-0.0037774909784086047,0.006547896406659856
1772457162221268700,7.077268798828125,0.04117956712841987,-0.02129742037691176,-0.010483226561592892
1772457162231287800,7.087287841796875,0.05689502265453338,-0.005732406172156333,-0.0026966004065237937
1772457162241305600,7.0973056640625,0.04911386725902557,-0.009025821694359183,0.016619290764350442
1772457162251324700,7.10732470703125,0.0319067118704319,-0.009097827484644948,0.014159640918858348
1772457162261342700,7.1173427734375,0.04163549420237541,-0.008458762396126985,0.010107826511096209
1772457162271360500,7.127360595703125,0.040438393372297286,-0.010174608136992901,0.02057314295666292
1772457162281379600,7.137379638671875,0.03939326823353767,0.020358148499112574,0.015936404800415038
1772457162291397600,7.147397705078125,0.0456792166352272,-0.02215790966376662,0.019530785163724793
1772457162301416700,7.157416748046875,0.03939677536487579,-0.022846841775998473,0.001519875644193962
1772457162311434800,7.167434814453125,0.03505319320261478,-0.009078994920011609,0.020765733786160125
1772457162321452500,7.17745263671875,0.05435644408762454,-0.0010367591692134737,0.011529100619023664
1772457162331471600,7.1874716796875,0.04762392096221447,0.0003889810512773692,-0.004082328277034685
1772457162341489700,7.19748974609375,0.037898645761609076,0.006899093597661703,-0.0058964741600677365
1772457162351508700,7.2075087890625,0.041938861063122744,-0.01645657448330894,0.01162918172632344
1772457162361526800,7.21752685546875,0.05031915139555931,-0.01380954883955419,0.013973616827465594
1772457162371544600,7.227544677734375,0.052263855722546576,-0.021143344060052183,0.011536690270435064
1772457162381563600,7.237563720703125,0.04298457072377205,-0.003234652805980295,0.015103744235401973
1772457162391581400,7.24758154296875,0.02517711135447025,-0.012386274570785461,0.017338718479545785
1772457162401600500,7.2576005859375,0.03131576023995876,-0.02695272445855662,0.02789335717638023
1772457162411618800,7.267618896484375,0.06004618016183376,-0.012127240042109041,0.013699393862811847
1772457162421636600,7.27763671875,0.05435878217518329,-0.017901987518649548,0.013887774308072403
1772457162431655700,7.28765576171875,0.03655190732777119,-0.020714451123494654,0.016856981110898776
1772457162441673700,7.297673828125,0.04268412647247314,-0.01152505463156849,-0.00016891769296489655
1772457162451692500,7.307692626953125,0.038192660272121426,-0.01313196010524407,0.01409683221518062
1772457162461710600,7.317710693359375,0.054202130308747286,-0.0078084452612325545,0.0040653588759247215
1772457162471728600,7.327728759765625,0.05210837289988994,-0.009175349700264632,0.014642474266048519
1772457162481747700,7.337747802734375,0.0483674328058958,-0.0011053856923244894,0.006578885199967771
1772457162491765800,7.347765869140625,0.04881459205150604,-0.01176260798079893,0.0042921351028140636
1772457162501784600,7.35778466796875,0.060038581377267836,-0.018360764136817306,0.00633422625651583
1772457162511802600,7.367802734375,0.03804360719025135,-0.0027746158124879,0.02455038515771739
1772457162521820700,7.377820556640625,0.03863748143017292,-0.00901824117610231,0.006125140949944033
1772457162531839500,7.387839599609375,0.031305823367834086,-0.006761365627404302,0.014497311908006667
1772457162541857800,7.39785791015625,0.03893851020336151,-0.00924351956564933,0.026026576923811807
1772457162551876600,7.407876708984375,0.03309796748161316,-0.007032437653746455,0.021643740463396535
1772457162561894700,7.417894775390625,0.0428209045946598,-0.0017047763575799761,-0.002013504380034283
1772457162571912700,7.42791259765625,0.043425884750485415,0.0005085340440273285,0.006687542339367792
1772457162581931500,7.437931640625,0.03609422668814659,-0.010984737209789455,0.019831786537449807
1772457162591949800,7.44794970703125,0.04192658610343933,-0.0007638787782751023,0.009386371235596016
1772457162601968600,7.45796875,0.03983049060702323,-0.01668252872629091,0.008089810352725907
1772457162611986700,7.467986572265625,0.03639233285188675,-0.009852207782212644,0.016993567436840384
1772457162622004700,7.478004638671875,0.04836567924022674,-0.009859623903688042,-0.010920522000314667
1772457162632023600,7.4880234375,0.03834054431021213,-0.009240158564783631,-0.0031324619399849324
1772457162642041600,7.49804150390625,0.03939151466786861,-0.0041587088483385735,0.002728776509920135
1772457162652060700,7.508060791015625,0.04492810600697994,0.0004567490578629076,0.009042096975725144
1772457162662078700,7.51807861328125,0.04118307425975799,-0.016240904172323642,0.005576320561300963
1772457162672096800,7.5280966796875,0.03235270207226276,-0.008350771977007388,0.016310142616787926
1772457162682115600,7.538115478515625,0.0438712904304266,-0.011619655846152453,0.014482260469347238
1772457162692133600,7.548133544921875,0.0438712904304266,-0.005623246709257364,0.022965938111022113
1772457162702152700,7.558152587890625,0.042673605078458784,0.0034707448504865167,0.0077068845828995106
1772457162712170500,7.56817041015625,0.04805997429192066,-0.017807806429173796,0.009079561175592244
1772457162722188800,7.578188720703125,0.043570261657238006,-0.010020294358115642,0.01634157893466763
1772457162732207600,7.58820751953125,0.02995674684643745,-0.01598588823163882,0.013169159443629905
1772457162742225700,7.5982255859375,0.03728548229932785,-0.017782690254226324,0.01393681021472439
1772457162752244700,7.60824462890625,0.047160979625582695,-0.01364246691064909,-0.002914088215259835
1772457162762262500,7.618262451171875,0.04431669611036777,0.005759495108481496,0.007529034664807841
1772457162772280600,7.628280517578125,0.039226679494977,-0.020325415273290126,0.011501810753298923
1772457162782299600,7.638299560546875,0.0366863473623991,-0.014202639810368418,0.028387004178529605
1772457162792317700,7.648317626953125,0.04716565580070019,-0.0065104048073291775,0.015951383173838256
1772457162802336800,7.658336669921875,0.040731238839030265,-0.003151522833481431,0.020181568089500068
1772457162812354600,7.6683544921875,0.03744096512198448,0.004586085681244731,0.011296214311756193
1772457162822372600,7.67837255859375,0.0277151053994894,-0.008992668343428522,0.011578748447028919
1772457162832391000,7.688390869140625,0.029358780953288078,-0.013524813614040612,0.009518527981592341
1772457162842409200,7.6984091796875,0.026815526211261747,-0.012308788887783884,0.008605705719301476
1772457162852428000,7.708427978515625,0.032201310902833936,-0.011739902958646416,-0.002627709021931514
1772457162862446000,7.718446044921875,0.04012859677076339,-0.015425057744793594,0.022086625392688436
1772457162872464000,7.7284638671875,0.05225274980664253,-0.000037884324975311755,0.023319811316300183
1772457162882483000,7.73848291015625,0.05988543664216995,-0.01408025553971529,0.01515658866749145
1772457162892501000,7.7485009765625,0.029662147814035415,-0.018171543441340327,0.00973421655888669
1772457162902520000,7.75852001953125,0.039537645140290255,-0.00754256086666137,0.028350371095724403
1772457162912538000,7.7685380859375,0.05375029488801956,-0.014059285816922782,0.007333539492171257
1772457162922556000,7.778555908203125,0.04671440490186214,-0.002932436722703278,0.007701861347910017
1772457162932575000,7.788574951171875,0.036837154009938235,-0.008856438210513443,0.008264664596132934
1772457162942593000,7.798593017578125,0.044320787763595576,-0.012411975267622619,0.018341885906411334
1772457162952611800,7.80861181640625,0.038783611902594564,0.006567761017754674,0.010708641948457807
1772457162962630100,7.818630126953125,0.03998188177645206,0.0004630509344860911,0.017019788723485543
1772457162972648200,7.828648193359375,0.032498248022794725,-0.0144148395226337,0.017315273671876637
1772457162982667000,7.8386669921875,0.044320787763595576,-0.004985862121172249,0.017412742696981877
1772457162992685000,7.84868505859375,0.04551964215934276,-0.023329017536062747,0.005614195753121748
1772457163002704100,7.8587041015625,0.048960722523927684,0.008655399213079363,0.02761318852812983
1772457163012722000,7.868721923828125,0.042080315360426904,-0.014257730998471378,0.028831140349991617
1772457163022741000,7.878740966796875,0.046566520863771436,-0.005973576250579208,0.016488869317714126
1772457163032759000,7.888759033203125,0.03369593337476253,-0.007162073649093509,0.011522351217828691
1772457163042777000,7.898777099609375,0.03698386900424957,-0.001297163671068847,-0.0005461169749032706
1772457163052796200,7.908796142578125,0.03324292891025543,-0.0052986361310817295,0.00775957375136204
1772457163062814000,7.91881396484375,0.03369184172153473,-0.007842858987487851,0.027978058051457626
1772457163072833000,7.9288330078125,0.04551788859367371,-0.024867972340062258,0.0029917200287338346
1772457163082850800,7.938850830078125,0.04222352322340012,-0.0010838314476422964,0.012853161430172622
1772457163092869000,7.948869140625,0.03055237465202808,0.002753573024459183,0.00731279809824191
1772457163102888200,7.95888818359375,0.03398994788527489,-0.01033210025364533,0.015049511563824489
1772457163112906000,7.968906005859375,0.05045066882073879,-0.013689904515258967,0.002970357580296695
1772457163122925000,7.978925048828125,0.04042319580316543,-0.008428878714516759,0.013991198149928823
1772457163132942800,7.98894287109375,0.028302549898624418,-0.02036602127831429,0.0166284604514949
1772457163142961200,7.998961181640625,0.036381811457872386,-0.01571958371195942,-0.01552235323996283
1772457163152980000,8.00897998046875,0.04775193125605583,-0.013726820725854485,0.014254817522177473
1772457163162998000,8.018998046875,0.02844634228348732,0.0037434060457162558,0.003533973679272458
1772457163173017000,8.02901708984375,0.038620530295372005,-0.012293938378524034,0.019488754386594517
1772457163183035100,8.03903515625,0.05553016404211521,-0.015059494101721792,0.0038328652943018823
1772457163193053000,8.049052978515626,0.05224222841262817,-0.012244820273481309,0.012282220541266724
1772457163203072000,8.059072021484376,0.053585459715127945,-0.019612152437400072,0.020610945083247498
1772457163213090000,8.069090087890626,0.04041910414993763,-0.006272906257025897,0.0045337070400360965
1772457163223109000,8.079109130859376,0.048500119274854654,-0.008574022806249559,-0.006228071601456031
1772457163233127200,8.089127197265626,0.03278758635818958,-0.010688859535753726,0.007973572695069014
1772457163243145000,8.09914501953125,0.037272622817754744,-0.007876487262453883,0.00441640080329962
1772457163253164000,8.1091640625,0.052687634092569345,-0.004028744059428572,0.01590705084176734
1772457163263181800,8.119181884765625,0.04460544992387294,0.0026570173148065803,0.0018139084210153668
1772457163273201000,8.129200927734376,0.03712590782344341,-0.006279555193521082,0.0026550262871198353
1772457163283219200,8.13921923828125,0.05583002377152443,-0.006405391796585172,0.00032755145393311975
1772457163293237000,8.149237060546875,0.030094694012403486,-0.005090984729770571,-0.0018029760350473224
1772457163303256000,8.159256103515625,0.05223989032506943,-0.01261241147685796,0.0054975745029747485
1772457163313273900,8.16927392578125,0.053884734922647476,-0.013544870021380483,-0.0022900745654013004
1772457163323293000,8.17929296875,0.05059329216182232,-0.01963299429602921,-0.009995388245722278
1772457163333311000,8.18931103515625,0.03712473877966404,-0.003680496877338737,-0.004265466291597113
1772457163343329000,8.1993291015625,0.03937105640172958,-0.00048160950448364017,0.007891456502722575
1772457163353348000,8.20934814453125,0.045054362735152245,-0.013318185126036405,0.00918765205941163
1772457163363366100,8.2193662109375,0.04101005578041077,-0.011364146715123206,0.01824941271683201
1772457163373385000,8.229385009765625,0.056118193063139914,-0.005407046675309539,0.022383699509967117
1772457163383403000,8.239403076171875,0.06165478440225124,-0.005269775362778455,-0.0004849522390402853
1772457163393421000,8.249421142578125,0.037411154505610465,-0.017213986988179386,0.02857448044149205
1772457163403439900,8.25943994140625,0.038164603221416474,-0.016765786562953144,-0.012114453625772148
1772457163413458200,8.269458251953125,0.03188274647295475,-0.009410583228245378,0.007804983795667067
1772457163423477000,8.27947705078125,0.04444996710121631,-0.0228287946626544,0.012601597821898758
1772457163433495000,8.2894951171875,0.04519815512001514,-0.01401274326145649,0.0105318880089093
1772457163443512800,8.299512939453125,0.061359600847959515,0.0027904161698184904,0.016501637467741966
1772457163453532000,8.309531982421875,0.032631519013643265,-0.004474569864477962,0.020160598366707562
1772457163463550200,8.31955029296875,0.041761166408658026,-0.003785710817482322,0.008452597516821697
1772457163473569000,8.329569091796875,0.045648236975073815,-0.001338829122018069,-0.009307908305060118
1772457163483587000,8.339587158203125,0.04415127641558647,-0.020842571015190332,0.008232497625891119
1772457163493605000,8.349605224609375,0.043698856472969054,-0.011631492414418607,0.002407115940656513
1772457163503624000,8.3596240234375,0.04355038791298866,-0.0017473368576727806,0.010834515084140002
1772457163513642000,8.36964208984375,0.027839024040102956,-0.0107443708489649,0.008383706132229418
1772457163523661000,8.3796611328125,0.028736849662661552,-0.010459252030961215,0.013344735206244513
1772457163533679000,8.38967919921875,0.03831365630328655,-0.015298490489367395,0.02137920777569525
1772457163543697200,8.399697265625,0.040105800417065615,-0.008526859196275473,0.007711277630226686
1772457163553716000,8.409716064453125,0.046537879291176795,-0.006103942898288368,0.015401969130150973
1772457163563734000,8.419734130859375,0.04145136980712413,-0.017733005893602966,0.02394929572572
1772457163573753000,8.429753173828125,0.045941666963696476,-0.009781444100942463,0.01936399549576454
1772457163583771000,8.43977099609375,0.038458617731928824,-0.010861859748791903,0.0214104522973299
1772457163593789200,8.4497890625,0.027086159846186637,-0.011045618817862122,0.00005462539722211659
1772457163603808000,8.45980810546875,0.027536826223134993,0.004612864090315997,0.002727507001440972
1772457163613826000,8.469825927734375,0.05162906495034694,-0.005094455328490585,0.018132800599839537
1772457163623845000,8.47984521484375,0.031277766317129134,-0.0030247181160375472,0.006170404863776639
1772457163633863000,8.48986279296875,0.0489338345170021,-0.00014034005245193838,0.017653949308022856
1772457163643881000,8.499880859375,0.05072948576211929,-0.003033011020347476,0.017798773739347233
1772457163653900000,8.509900146484375,0.039652795952558516,-0.011786591644585133,0.013874796095490454
1772457163663918000,8.51991796875,0.037705753538012504,-0.01556424701977521,0.01366510800071992
1772457163673937200,8.529937255859375,0.04309446083903312,-0.007702939060144126,0.0057349086564965545
1772457163683955000,8.539954833984375,0.0469862075805664,-0.020700002473033965,0.007258227499946952
1772457163693973000,8.549972900390625,0.04698270044922828,-0.01540545799518004,0.002651838816190138
1772457163703992000,8.559991943359375,0.04922434189617633,-0.008436751493718475,0.0007426167945377528
1772457163714010000,8.570010009765625,0.046831309279799456,-0.0070521104685962194,0.026537357723852618
1772457163724029200,8.580029296875,0.045184711116552354,-0.004565755279269069,0.008009977449011057
1772457163734047000,8.590046875,0.041890930268168446,-0.012106051123607903,0.009520153683098033
1772457163744065000,8.60006494140625,0.0496703320980072,-0.0057423430442810055,0.02521733376700431
1772457163754084000,8.610083984375,0.048020226803421974,-0.006764690095651895,0.02285020277686417
1772457163764102000,8.620101806640625,0.03754851714968681,-0.00042041736915707586,0.0042677769796922805
1772457163774121000,8.630120849609375,0.01645312215089798,-0.008502565005235373,-0.00679918602029793
1772457163784139000,8.640138916015625,0.04383797268271446,-0.020098492915928363,0.007690234842197969
1772457163794157000,8.650156982421874,0.0547591796696186,-0.007381908678542822,0.010636343897227197
1772457163804176100,8.660176025390625,0.04143967936933041,-0.007442388427816331,0.002093693476775661
1772457163814194000,8.67019384765625,0.02946984011232853,-0.009063724285643547,0.003461100239306688
1772457163824213000,8.680212890625,0.03455284246504307,-0.016287300597317516,0.021861894992413
1772457163834231600,8.6902314453125,0.03261047622561455,0.006218801449611783,0.01942659413688816
1772457163844249600,8.70024951171875,0.027969372421503064,-0.025174645402748136,0.01261579074403271
1772457163854268700,8.7102685546875,0.04068389256596565,-0.01354505268447101,0.003319892537174746
1772457163864286700,8.72028662109375,0.060439563393592834,0.003911839681491255,0.010600806792965158
1772457163874305800,8.730305908203125,0.051016486009955404,-0.0032695779888890684,0.0024117373168468475
1772457163884323600,8.740323486328125,0.06268763458132744,0.007262666213046759,0.020355107158655298
1772457163894341600,8.750341552734374,0.05415887568891048,0.004121719572506845,0.015572247663140295
1772457163904360700,8.760360595703125,0.036354338929057116,-0.0076287595790810875,0.0030720004570204762
1772457163914378800,8.770378662109374,0.03620411680340767,-0.013481394597422331,0.005748087798478081
1772457163924397800,8.780397705078125,0.049670916619896886,-0.015029135496076195,0.008516328669106588
1772457163934415600,8.79041552734375,0.041294133418798444,-0.01418455616440624,0.002566626484459266
1772457163944433700,8.80043359375,0.03515782262086868,-0.006642324091307819,0.0031027791877742857
1772457163954452700,8.81045263671875,0.040400399449467654,-0.0062025079019367695,0.009224559136852621
1772457163964470500,8.820470458984374,0.03979951094686985,0.004488927183393388,0.015064855263428762
1772457163974489600,8.830489501953124,0.04772621229290962,0.000028495442122220993,-0.0031410379720851777
1772457163984508000,8.8405078125,0.04727613043785095,0.0004078318822197616,0.007364099027216434
1772457163994525700,8.850525634765624,0.02123918738365173,-0.026674948696792124,0.020237627391982822
1772457164004544800,8.860544677734374,0.02871639139652252,-0.029199991928692905,0.018612693071272224
1772457164014562600,8.8705625,0.04712006309330463,-0.01587323990371078,0.010950369149306789
1772457164024581600,8.88058154296875,0.05116320100426674,-0.011421795186493545,0.00977336125918664
1772457164034599700,8.890599609375,0.05265782347619533,-0.017641509951557964,0.020861065653106196
1772457164044617700,8.90061767578125,0.04322890087366104,0.013552158278692513,0.02507546847774647
1772457164054636800,8.91063671875,0.04981178639531135,-0.008645626737736166,0.01805882204817608
1772457164064654600,8.920654541015624,0.05041150585412979,-0.006009524346794933,-0.013024645539559423
1772457164074673700,8.930673583984374,0.0210837045609951,-0.013160272884275763,0.00017372173224575817
1772457164084691700,8.940691650390624,0.03080781071782112,-0.009984583723917603,0.0037965427387505767
1772457164094709800,8.950709716796876,0.03440086677372455,-0.015470869647897779,0.004748317905096337
1772457164104728600,8.960728515625,0.0478664975464344,-0.011527849376853555,0.012115330408606677
1772457164114747000,8.970746826171874,0.03559562951624393,-0.003917648367770016,0.019896641067741437
1772457164124765700,8.980765625,0.038140053302049635,-0.019090119590982793,-0.0074632668190635736
1772457164134783700,8.99078369140625,0.047865913024544716,-0.016967044756095857,0.0018885902255773544
1772457164144801500,9.000801513671876,0.04652209720015526,-0.011625555863976478,0.022861792749958112
1772457164154820600,9.010820556640626,0.060439563393592834,-0.005399356559198349,0.01108464478715323
1772457164164839000,9.0208388671875,0.024524784925580023,-0.008936773437727242,0.007543802975676953
1772457164174857700,9.030857666015624,0.04727086974084377,-0.012007887978758663,0.00899633073839359
1772457164184875800,9.040875732421876,0.04458206904828548,-0.02039800558546558,0.016293017952051014
1772457164194893600,9.0508935546875,0.0507160417586565,-0.016866780985705553,0.015273940570000559
1772457164204912600,9.06091259765625,0.02991466127038002,-0.01576210767943412,0.01858553106971085
1772457164214930700,9.0709306640625,0.04412672649621963,-0.00822190316664055,0.005926138645969331
1772457164224949500,9.080949462890626,0.0566939471244812,-0.01708798598833382,0.016271153180114923
1772457164234967800,9.0909677734375,0.02556757197678089,-0.007231558688730001,0.01302462727325037
1772457164244985600,9.100985595703126,0.05295183798670768,-0.03245798907764256,0.008443994085257872
1772457164255004700,9.111004638671876,0.04801087445318698,-0.019588862893357872,0.003433408514782786
1772457164265022700,9.121022705078126,0.041725510573387144,-0.010153912408836185,-0.005766856431029737
1772457164275041500,9.13104150390625,0.05100596461594104,-0.004635824840795249,0.0017159188061021268
1772457164285059600,9.1410595703125,0.059684361112117765,-0.012564919073320925,0.0029959943450521675
1772457164295078000,9.151077880859376,0.035596798560023304,0.0025613383879885075,0.00660638512824662
1772457164305096700,9.1610966796875,0.03634440205693245,-0.010524042629171162,0.0011491883014328778
1772457164315114800,9.17111474609375,0.04023322618901729,-0.01837079234048724,0.008001492748456076
1772457164325133800,9.1811337890625,0.04157821105718613,-0.009611074236407875,0.023599084915407
1772457164335151600,9.191151611328126,0.04501812237799167,-0.011350154722388832,0.008356872924230992
1772457164345169700,9.201169677734375,0.027208324921131132,-0.004250789312273263,0.006045097983675077
1772457164355188700,9.211188720703126,0.040676293781399725,0.003195270643662661,0.01091538003431633
1772457164365206800,9.221206787109375,0.056088382446765894,-0.00643602439686656,0.0015783734989352524
1772457164375225900,9.231225830078126,0.051450785773992536,-0.008544011260475963,0.011840869981935247
1772457164385243600,9.24124365234375,0.044268765315413475,-0.0005047346517443657,0.004669699710933491
1772457164395261700,9.25126171875,0.03588964402675628,-0.004873980978224426,-0.000897186301741749
1772457164405280500,9.261280517578125,0.04322539374232292,-0.02274224889036268,0.012079007853055372
1772457164415298800,9.271298828125,0.03634732466638088,-0.01629791332287714,0.024591338222613557
1772457164425318000,9.28131787109375,0.04742109186649322,-0.004633833813108504,0.011806401456752791
1772457164435335700,9.291335693359375,0.051313423129916186,-0.002045169026777148,-0.004142177838645875
1772457164445354800,9.301354736328125,0.05071195010542869,-0.01600311336107552,0.018598006958793847
1772457164455372800,9.311372802734375,0.0385901351571083,0.0002395991758443415,0.02233976903669536
1772457164465390600,9.321390625,0.048014381584525104,-0.01253841465888545,0.004146479554427787
1772457164475409700,9.33140966796875,0.0507072739303112,-0.008698672099225223,0.0071867149000056085
1772457164485427700,9.341427734375,0.03769114049077034,-0.014738664649520068,0.008826755458302795
1772457164495446800,9.35144677734375,0.04996083947718143,-0.02030592512153089,0.007171197670465335
1772457164505464800,9.36146484375,0.055799628633260726,-0.025874592099338768,0.01722417045547627
1772457164515482600,9.371482666015625,0.037248072898387906,-0.014387787118926644,0.017138601930718866
1772457164525501700,9.381501708984375,0.043236499658226964,-0.015619502604659646,0.025536409653536974
1772457164535519500,9.39151953125,0.03934592196047306,-0.004925875562243163,0.009565965586202218
1772457164545538600,9.40153857421875,0.035303953093290326,-0.015295604412537068,0.016668500200938432
1772457164555556900,9.411556884765625,0.03186170368492603,-0.019654037084057926,0.023220506527135146
1772457164565574700,9.42157470703125,0.046670565760135646,-0.01069348091194406,0.00024288711147382855
1772457164575593700,9.43159375,0.04921323598027229,-0.012205730372108519,0.01814088344159536
1772457164585611500,9.441611572265625,0.031107670447230337,-0.010270725455228238,0.014595036661438644
1772457164595630600,9.451630615234375,0.023927403554320333,-0.018394191482383755,0.014877415533084422
1772457164605648600,9.461648681640625,0.05370704026818275,-0.013274583446327596,0.02381582380547188
1772457164615666700,9.471666748046875,0.048916298860311506,-0.021459223342500625,0.0012043068889994173
1772457164625685800,9.481685791015625,0.03888882584273815,-0.02479810370793566,0.004615083446865901
1772457164635703800,9.491703857421875,0.04921148241460323,0.0005350019258446991,0.005054031986556947
1772457164645722600,9.50172265625,0.03349836497604847,-0.02014125434542075,0.005479006799822673
1772457164655740700,9.51174072265625,0.03663783204555511,-0.011369023819640278,0.008335236481158062
1772457164665758700,9.5217587890625,0.04875438629686832,-0.010591171314939855,-0.0024028324911836534
1772457164675777800,9.53177783203125,0.04546469710171223,0.005523129069339484,0.0037497718544211235
1772457164685795800,9.5417958984375,0.03544248478114605,-0.0013767499796114861,0.0079749883340206
1772457164695814700,9.551814697265625,0.04935936645269394,-0.0061248212895356115,0.016145270911278202
1772457164705832700,9.561832763671875,0.049508419534564016,-0.016070388177316635,0.008186895785341038
1772457164715850500,9.5718505859375,0.04083060756027698,-0.012417126366775482,0.01219804025599733
1772457164725869600,9.58186962890625,0.0532516977161169,-0.009194876384641974,0.010335068528866394
1772457164735888000,9.591887939453125,0.04382160606980324,-0.010486688027158379,0.029140425494872033
1772457164745906700,9.60190673828125,0.02392097381353378,-0.022277901047933847,0.01615945470025763
1772457164755924700,9.6119248046875,0.028261633366346357,-0.015851028071902692,0.009359026570944114
1772457164765942500,9.621942626953125,0.04352583799362182,-0.001570756448060274,0.0011221632971893996
1772457164775961600,9.631961669921875,0.06297872648239135,0.0015917809697799383,0.021433111653709782
1772457164785979600,9.641979736328125,0.0559486817151308,-0.011907441545277833,0.016210554699832572
1772457164795998500,9.65199853515625,0.03185819655358791,-0.015780794113595037,-0.00004507211758755147
1772457164806016800,9.662016845703125,0.027670097213983533,-0.024237054025381802,0.007901831766264513
1772457164816034800,9.672034912109375,0.03755085523724556,-0.001777494533918798,0.00867964773834683
1772457164826053600,9.6820537109375,0.03201718650758266,-0.015890483299456536,-0.0017209420410916208
1772457164836071000,9.69207080078125,0.048180970323085784,-0.014743377357255666,0.013144910918362437
1772457164846089700,9.70208984375,0.05491816962361335,-0.0032457587218843397,-0.0037537904424127188
1772457164856108000,9.71210791015625,0.0540232666105032,-0.00747471979483962,0.010351279878150672
1772457164866126000,9.7221259765625,0.038462124863266944,-0.006033964668307453,0.00038240518001839515
1772457164876145000,9.732144775390625,0.04938917706906795,-0.021984726787637916,0.0017793394311331212
1772457164886163000,9.742162841796874,0.041163785037398336,-0.008885591239761561,0.011395318171521647
1772457164896182000,9.75218212890625,0.02500292383134365,-0.015394900068547575,0.005584019810566678
1772457164906199800,9.76219970703125,0.02919745291173458,-0.021493326541502027,0.024021968236286193
1772457164916218000,9.772218017578124,0.041321605947613714,-0.008040189924184232,0.02553155994848348
1772457164926237000,9.78223681640625,0.038622868382930754,-0.009733513305988163,0.014689245150377972
1772457164936255000,9.7922548828125,0.030690906339883802,-0.007620448408462106,-0.0021688410722184924
1772457164946274000,9.802274169921875,0.04805179098546505,-0.007236527124792337,-0.00046490496485494077
1772457164956291800,9.812291748046874,0.0348866044640541,-0.006508340714406221,-0.006467679910454899
1772457164966310100,9.82231005859375,0.04925064538121223,0.004658347199857235,0.002095383110363036
1772457164976328000,9.832327880859374,0.041324528557062146,-0.013555080888140945,0.015844854059442876
1772457164986347000,9.842346923828124,0.02366787583529949,-0.015296700391080229,0.015342987218219787
1772457164996364800,9.85236474609375,0.04925765964388847,-0.036625082161836325,0.01595217775828205
1772457165006383900,9.8623837890625,0.06811667389273643,-0.01117994925463572,0.01412953804153949
1772457165016402000,9.87240185546875,0.03968260656893253,0.0013948701581917703,0.021044459395995363
1772457165026420000,9.882419921875,0.04746259292066097,-0.017700382265634834,0.010777971724467351
1772457165036439000,9.89243896484375,0.05330255112051963,-0.013677647821884601,-0.0006582081804051995
1772457165046457000,9.90245703125,0.043729251611232756,-0.0015279036870226262,0.007535537470830604
1772457165056476000,9.912475830078124,0.043430560925602914,-0.014567217072751373,-0.0019711082767229528
1772457165066494000,9.922493896484376,0.03550093697011471,-0.00781381555609405,-0.004306538087502121
1772457165076513000,9.932512939453124,0.03131283763051033,-0.01847739452011883,0.011053993920562789
1772457165086530800,9.94253076171875,0.03775134624540805,-0.006620276656281203,0.004000760073959827
1772457165096549000,9.952549072265626,0.06423311045765877,0.00612953399727121,0.0003011292378883809
1772457165106568000,9.96256787109375,0.04537994142770767,-0.006936429933365434,0.03132364215231501
1772457165116586000,9.9725859375,0.029369302347302437,-0.0011869447622448205,0.010287439128011465
1772457165126603800,9.982603759765626,0.044483284848928446,-0.01103453116826713,-0.006331029652431607
1772457165136622800,9.992622802734376,0.01979483379423618,-0.0032824557367712257,0.0161700856921263
1772457165146641000,10.002640869140626,0.03744856390655041,-0.001760105007700622,-0.00019112952477298676
1772457165156660000,10.012659912109376,0.051065585848689074,-0.017895959636662153,-0.003965003773989156
1772457165166678000,10.022677978515626,0.04373392778635025,0.002348882947396487,0.003781098574446514
1772457165176697000,10.032697021484376,0.03610474808216095,-0.012048786244727671,0.011055108165415004
1772457165186715000,10.04271484375,0.039543490359187125,-0.02648170941332355,0.0010515457463916391
1772457165196733000,10.05273291015625,0.038948447075486184,-0.004938095722999423,0.005122978170076385
1772457165206751700,10.062751708984376,0.04867313775420189,-0.011193722051661461,0.02421475086202845
1772457165216770000,10.07277001953125,0.05151742126941681,-0.016818667527660727,0.004274453315651044
1772457165226788000,10.0827880859375,0.04044365406930446,-0.017066833602450787,0.013410685715079307
1772457165236807000,10.092806884765626,0.03999532577991485,-0.01717966459346935,0.006068917250679805
1772457165246825000,10.102824951171876,0.053610594156384465,-0.006321074513997882,0.0071121974922250955
1772457165256844000,10.112843994140626,0.04822539398670196,-0.01334892732417211,-0.007433921993570402
1772457165266861800,10.12286181640625,0.02832417720854282,0.002732164910249412,0.004914121192367747
1772457165276881000,10.132880859375,0.04672843342721462,0.010750946720223873,0.012275188012281432
1772457165286899000,10.14289892578125,0.047478375011682505,-0.009514427195210009,0.008492966059828176
1772457165296917000,10.1529169921875,0.03461187917590141,-0.023229173890780656,0.011568510180804879
1772457165306937000,10.16293701171875,0.042241058880090714,-0.017821579226199535,0.002960101047763601
1772457165316955000,10.172954833984376,0.030269466057419776,-0.013668368536885828,0.0007458225317765026
1772457165326973000,10.182972900390626,0.056312838852405546,-0.007184650807082652,0.004756254616379738
1772457165336992000,10.192991943359376,0.046587563651800154,-0.008974000175576657,0.014126240972755477
1772457165347009800,10.203009765625,0.0435965651422739,0.001150412144139409,-0.0035678211499471217
1772457165357028900,10.21302880859375,0.054821723511815065,-0.012689294371660798,0.025528482075408098
1772457165367047000,10.223046875,0.043751463443040844,0.006581058890745044,0.01611654714029282
1772457165377065000,10.23306494140625,0.03731529291570186,-0.002431885055731982,0.022591058650333434
1772457165387084000,10.243083984375,0.05138005862534046,-0.006952394687477499,0.00010147847994230686
1772457165397101800,10.253101806640625,0.03671849606633186,-0.008479348526429384,-0.009751542153023183
1772457165407121000,10.263120849609376,0.027442133677005768,-0.00781341369729489,0.0011290405625477432
1772457165417139000,10.273138916015625,0.034922844821214674,-0.0027071765994653102,0.02197207736861892
1772457165427157000,10.283156982421875,0.04091068705916404,-0.005490706370770931,0.012145031427126377
1772457165437176000,10.293176025390625,0.040758711367845535,-0.02274597521740943,0.004438429972017184
1772457165447193900,10.30319384765625,0.05631868407130241,-0.017232198498304933,0.003217528141243383
1772457165457213000,10.313212890625,0.05332768556177616,-0.021193229350075126,0.003393633626820519
1772457165467231000,10.32323095703125,0.029835166293382644,-0.003046345425955951,0.005280187158938497
1772457165477249000,10.3332490234375,0.019962591576576233,0.009480104800499975,0.015989276631968096
1772457165487268000,10.34326806640625,0.050933483901619905,-0.0025720972440205513,0.000412836850900203
1772457165497286000,10.353285888671875,0.04330313515365124,-0.013926782011054455,-0.0007550013520754873
1772457165507305000,10.363304931640625,0.04914017074406147,0.003614756431058049,0.01917850112733431
1772457165517323000,10.373322998046875,0.045101124486327165,-0.0003666048226878047,0.007829442383488639
1772457165527340800,10.3833408203125,0.025650574085116385,-0.003336688408348709,-0.0004285550098400563
1772457165537360000,10.39335986328125,0.04181494242250919,-0.009793627729080616,0.0015632124624215065
1772457165547378000,10.4033779296875,0.026401684713363648,0.00021289383200928568,0.012615571548324078
1772457165557397000,10.41339697265625,0.041966333591938014,-0.013793200492952018,0.0037132483694702384
1772457165567415000,10.4234150390625,0.043161096334457395,-0.009207480137888342,0.010089605867816135
1772457165577432800,10.433432861328125,0.03582943827211857,0.0015898630073294042,0.012158603294752537
1772457165587452000,10.443451904296875,0.04690086738467216,-0.004605009577423334,-0.008378335837367922
1772457165597470000,10.453469970703125,0.04824760581851005,-0.010974014886375515,0.016202106531895695
1772457165607488800,10.46348876953125,0.04047229564189911,-0.015580814562086015,0.02712679325067438
1772457165617507000,10.473507080078125,0.04706102638244629,-0.006795322695933282,0.007825442061806097
1772457165627524900,10.48352490234375,0.0470604418605566,-0.00512777307620272,0.010753896729135886
1772457165637544000,10.4935439453125,0.04406652074158191,-0.007119111290201544,0.017028328222967685
1772457165647562000,10.50356201171875,0.05424187779724598,-0.004707757565844804,0.01743334709359333
1772457165657580800,10.513580810546875,0.04840718029439449,0.00013228461015969513,0.013974612341308966
1772457165667598800,10.523598876953125,0.0569336010992527,-0.012500840861164033,-0.009929940060386434
1772457165677617000,10.533616943359375,0.050044426107406614,-0.0036863603625446554,0.01462296584798023
1772457165687636000,10.543635986328125,0.050342532271146774,-0.00440853715725243,0.019568011901574207
1772457165697654000,10.553654052734375,0.05049216987490654,-0.015620178458094595,0.003200567873287946
1772457165707672800,10.5636728515625,0.025503274568915366,-0.0024510098813101647,0.021652818818995726
1772457165717691000,10.57369091796875,0.02640110019147396,0.0010414170780219138,0.011834513306384905
1772457165727709000,10.583708984375,0.03822305541038513,-0.006565952653158456,0.010345471191871911
1772457165737728000,10.59372802734375,0.05049567700624465,-0.03622450200431049,-0.009137273579044267
1772457165747746000,10.60374609375,0.03822656254172325,-0.026033399390242993,0.01650578391989693
1772457165757765000,10.61376513671875,0.05872574521303177,-0.0012782580411992966,0.020152625122806057
1772457165767783000,10.623782958984375,0.03642681964337825,0.008120579950325191,0.0000524517064448446
1772457165777801000,10.633801025390625,0.03702244744896888,0.007839370122458784,-0.0042301301167346535
1772457165787819800,10.64381982421875,0.04570727368593216,0.010449881414417177,0.007798353125480935
1772457165797838000,10.653838134765625,0.046751814302802085,-0.026312088467460124,0.016587087261490524
1772457165807857200,10.663857177734375,0.04136486056745052,-0.008963332651089876,0.008964510828023776
1772457165817875000,10.673875,0.04106967701315879,-0.023943861498776822,0.007242463675234467
1772457165827893000,10.68389306640625,0.03493804239034653,-0.010310125883854925,0.016340839149150996
1772457165837911800,10.693911865234375,0.04361526984274387,0.00351363414414227,0.019242497141100465
1772457165847929900,10.703929931640625,0.032092589831352235,0.016053857167623937,0.008456232512323185
1772457165857949000,10.713948974609375,0.033442250874638556,0.009412994381040334,-0.0019524127094075082
1772457165867967000,10.723967041015625,0.04436579594910144,-0.0010914119658991695,0.01920943512171507
1772457165877985000,10.733985107421875,0.07159983983337878,-0.007563950714562088,0.0007326159903313965
1772457165888003800,10.74400390625,0.02162321826517582,-0.017351897621527314,0.00042327604652382433
1772457165898022000,10.75402197265625,0.031200609427690505,-0.01150459636542946,0.015885679260175676
1772457165908041000,10.764041015625,0.05064882174134254,-0.006543850419204682,0.015610944838868454
1772457165918058800,10.774058837890625,0.04765256253480911,-0.019194438481982795,-0.0013157039747573435
1772457165928077000,10.7840771484375,0.03882277486920357,-0.0031777167206630107,0.0039908323349896815
1772457165938095900,10.794095947265625,0.05498363607525825,-0.0010940240480937064,-0.00021914090970531105
1772457165948114000,10.804114013671875,0.0460018727183342,-0.0010619666757062077,0.020255464442772788
1772457165958133000,10.814133056640625,0.029691373908519742,-0.01167160522909835,0.002552314831316471
1772457165968150800,10.82415087890625,0.03059387570619583,-0.012695395318884401,-0.009656977471057326
1772457165978169000,10.834169189453124,0.037327567875385284,-0.019556531526334582,0.002256930347625166
1772457165988188000,10.84418798828125,0.032682956939935684,-0.01752084271395579,0.012517782862810417
1772457165998206000,10.8542060546875,0.03941957171857357,-0.013829075523931532,0.019577108523482455
1772457166008225000,10.86422509765625,0.03777706520855426,0.0027041991910897196,-0.00016382139273919165
1772457166018242800,10.874242919921874,0.045558220604062075,0.004202036533411592,0.001761429315106943
1772457166028262000,10.884261962890625,0.04107084605693817,-0.000020896657556295395,0.003969314622925595
1772457166038280000,10.894280029296874,0.040924715584516526,-0.003556724367197603,0.00008358663022518158
1772457166048298000,10.904298095703124,0.03987666783630848,-0.022780443742591885,0.007959297574544324
1772457166058317000,10.914317138671874,0.029702479824423787,-0.018097418759204446,0.022624403797509147
1772457166068334800,10.9243349609375,0.03194762840270996,-0.0033744448691606518,0.010916421213932334
1772457166078353000,10.934352783203124,0.036736616244912146,-0.016642744705174118,0.00980243209004402
1772457166088372000,10.9443720703125,0.03853051392436027,0.006616586861852556,0.0051727173296269024
1772457166098389800,10.9543896484375,0.049150692138075824,0.002799019601382315,0.019351464807754383
1772457166108408800,10.964408935546874,0.0340372941583395,-0.007595350499823689,0.021273089653253554
1772457166118427000,10.974427001953124,0.05843114618062973,-0.015313213134463875,0.0131875262173824
1772457166128446000,10.984446044921874,0.04287117347717285,0.002132829043921083,0.013937102475669235
1772457166138464000,10.994464111328124,0.03239595669209957,-0.0028040245700627566,0.007615379507699981
1772457166148481800,11.004481689453126,0.04796060557067394,-0.011823672251962125,0.024477018527407197
1772457166158500900,11.0145009765625,0.047511692759394646,-0.017074742914270608,0.024973067549197002
1772457166168518700,11.0245185546875,0.03868015152812004,0.0007345065533183514,-0.0025439671280793846
1772457166178537000,11.034536865234376,0.03568739945292473,0.00168157814508304,0.00278082635756582
1772457166188556000,11.04455615234375,0.037188451665639874,-0.0011068104644306003,0.0033811303382739423
1772457166198573800,11.05457373046875,0.04781447509825229,-0.003152637078333646,0.018513580078352243
1772457166208593000,11.064593017578124,0.038836803394556044,0.004922569360304624,0.017262164378305897
1772457166218611000,11.07461083984375,0.042727965614199635,0.004450001678802073,-0.002854202121030539
1772457166228629800,11.084629638671874,0.04841477907896041,-0.022188049073703586,0.017678663624171167
1772457166238648000,11.09464794921875,0.05529810885190963,0.0015203231687657534,0.023076814606972036
1772457166248665900,11.104665771484376,0.01011924295425415,-0.001903258071746677,0.003265221474179998
1772457166258685000,11.114684814453126,-0.16800035892426968,0.050119628501776606,0.02124525179825723
1772457166268703000,11.124702880859376,0.2890110031366348,-0.057506103757582604,0.020233417007746175
1772457166278721800,11.1347216796875,0.30489538548886774,-0.08547211517821997,0.009582450930122286
1772457166288739800,11.14473974609375,-0.2148591407328844,0.04934519179686904,0.01077717714002356
1772457166298758000,11.1547578125,-0.23317688771188258,0.05427064723400399,0.01621259139329195
1772457166308777000,11.16477685546875,0.24704408502280711,-0.07179315218208357,0.0058474291202612215
