time,seconds_elapsed,z,y,x
1772457155209638700,0.065638671875,-0.0015638081822544336,0.0032112395856529474,0.0022447784431278706
1772457155219657500,0.075657470703125,0.002600576728582382,0.007640076335519552,0.010135458782315254
1772457155229675500,0.085675537109375,-0.0009472863748669624,0.002814695006236434,-0.0014583469601348042
1772457155239694600,0.095694580078125,-0.002805373864248395,0.005650162696838379,-0.005286907311528921
1772457155249712400,0.10571240234375,-0.0018168084789067507,0.005051750224083662,0.006115150637924671
1772457155259731500,0.1157314453125,-0.0023299995809793472,0.004252269398421049,0.0037739656399935484
1772457155269749800,0.125749755859375,-0.0019443739438429475,0.004352404270321131,-0.00603498937562108
1772457155279767600,0.135767578125,-0.004006725735962391,0.005511944647878408,-0.002326271263882518
1772457155289786600,0.14578662109375,-0.0019771307706832886,0.006170011591166258,0.0026258768048137426
1772457155299804400,0.155804443359375,-0.0022359900176525116,0.00452710734680295,-0.0022687469609081745
1772457155309823500,0.165823486328125,-5.326322138898831e-7,0.005089300684630871,-0.004744155332446098
1772457155319841500,0.175841552734375,-0.0027057717088609934,0.004757737275213003,0.0018554243724793196
1772457155329859600,0.185859619140625,-0.0007699198904447258,0.00370099488645792,0.0029885992407798767
1772457155339878700,0.195878662109375,-0.0037268276792019606,0.005225388333201408,0.000711064029019326
1772457155349896400,0.205896484375,-0.0031755531672388315,0.005658951122313738,0.000019707391402334906
1772457155359915500,0.21591552734375,-0.0018093516118824482,0.0020849888678640127,-0.002353435382246971
1772457155369933600,0.22593359375,-0.00424321461468935,0.004819522611796856,0.0025798040442168713
1772457155379951400,0.235951416015625,-0.002644785214215517,0.00458702864125371,-0.0002490055630914867
1772457155389970400,0.245970458984375,-0.001996039180085063,0.004716990981251001,-0.00009374327055411413
1772457155399988500,0.255988525390625,0.00005193164179218002,0.0022690133191645145,-0.0024567660875618458
1772457155410007600,0.266007568359375,-0.0011179950088262558,0.005260542035102844,0.0011835087789222598
1772457155420025600,0.276025634765625,-0.0023345269728451967,0.00202240445651114,-0.0025925873778760433
1772457155430044400,0.28604443359375,-0.001537975505925715,0.004716724622994661,-0.0001637844106880948
1772457155440062500,0.2960625,0.00010253170330543071,0.004037352278828621,0.0005834985640831292
1772457155450080500,0.30608056640625,-0.0014924354618415236,0.004065581597387791,-0.000621848099399358
1772457155460099600,0.316099609375,-0.0018879148410633206,0.005139634478837252,-0.0027451864443719387
1772457155470117600,0.32611767578125,-0.0008929579053074121,0.004700479097664356,0.0007265103631652892
1772457155480136700,0.33613671875,0.001484712352976203,0.0029470541048794985,0.001985120354220271
1772457155490154500,0.346154541015625,-0.0010045443195849657,0.002907373011112213,-0.0013811152894049883
1772457155500172500,0.356172607421875,-0.0013259878614917397,0.0048738508485257626,0.0005430185701698065
1772457155510191400,0.36619140625,-0.003284476464614272,0.005380916874855757,-0.00044767739018425345
1772457155520209700,0.376209716796875,-0.0018604843644425273,0.006520483642816544,0.000895621080417186
1772457155530228700,0.386228759765625,-0.002653573639690876,0.0034439999144524336,0.00035233621019870043
1772457155540246500,0.39624658203125,-0.0012551478575915098,0.005649097263813019,-0.0004191815387457609
1772457155550264600,0.4062646484375,-0.0012351741315796971,0.002517219865694642,-0.0023156185634434223
1772457155560283400,0.416283447265625,-0.0021081583108752966,0.005782255437225103,-0.0015225291717797518
1772457155570301400,0.426301513671875,-0.0006087986403144896,0.003123888047412038,0.0020474381744861603
1772457155580320500,0.436320556640625,-0.0011827098205685616,0.004578772932291031,-0.0008261125767603517
1772457155590338600,0.446338623046875,-0.0020602215081453323,0.0034525219816714525,0.001079911831766367
1772457155600357600,0.456357666015625,0.00041998049709945917,0.001680720946751535,0.001187237212434411
1772457155610375700,0.466375732421875,-0.0029795446898788214,0.004747350700199604,0.00009960222087102011
1772457155620393500,0.4763935546875,-0.002011485630646348,0.004598480183631182,-0.001341966912150383
1772457155630412500,0.48641259765625,-0.001278849900700152,0.004957474302500486,-0.0014034858904778957
1772457155640430300,0.496430419921875,-0.003290601773187518,0.006881341803818941,-0.001564873498864472
1772457155650449400,0.506449462890625,-0.0015717976493760943,0.004578506574034691,-0.0009568737586960196
1772457155660467700,0.5164677734375,-0.0022799321450293064,0.005417136009782553,0.001942776027135551
1772457155670485500,0.526485595703125,0.0035055188927799463,0.001645300886593759,-0.0008769789128564298
1772457155680504600,0.536504638671875,-0.0018961706664413214,0.003126284806057811,-0.0014982944121584296
1772457155690522400,0.5465224609375,-0.0016466324450448155,0.0025276062078773975,-0.0011400992516428232
1772457155700541400,0.55654150390625,-0.0029116340447217226,0.004345213528722525,-0.0007816377910785377
1772457155710559500,0.5665595703125,-0.0016136092599481344,0.0038448055274784565,-0.0025931198615580797
1772457155720577500,0.57657763671875,-0.0008809737046249211,0.0027198863681405783,0.00017470336752012372
1772457155730596600,0.5865966796875,-0.0012719257501885295,0.00404534162953496,-0.0015968313673511147
1772457155740614400,0.596614501953125,-0.002528405049815774,0.0051505533047020435,0.0003856257244478911
1772457155750633500,0.606633544921875,-0.001005609636195004,0.0067971860989928246,-0.002243180526420474
1772457155760651500,0.616651611328125,-0.0012215919559821486,0.005516471806913614,-0.00039468047907575965
1772457155770669600,0.626669677734375,-0.0010626012226566672,0.006346579175442457,0.0008737831376492977
1772457155780688600,0.636688720703125,-0.0014500912511721253,0.004305532667785883,0.002514290390536189
1772457155790706700,0.646706787109375,-0.0012831110507249832,0.0034229608718305826,0.00019867181254085153
1772457155800725500,0.6567255859375,-0.0008407599525526166,0.005317267496138811,0.00036511936923488975
1772457155810743600,0.66674365234375,-0.0014362427173182368,0.004596616141498089,0.0010972223244607449
1772457155820762400,0.676762451171875,-0.0014442323008552194,0.0046757119707763195,-0.0016919062472879887
1772457155830780400,0.686780517578125,-0.0024168186355382204,0.004005128052085638,-0.002287389012053609
1772457155840798500,0.696798583984375,0.0011113371001556516,0.003963849041610956,-0.0003299656673334539
1772457155850817500,0.706817626953125,-0.001068193931132555,0.0027417242527008057,-0.00024527712957933545
1772457155860835300,0.71683544921875,-0.0016367788193747401,0.0038866172544658184,-0.0008484831196255982
1772457155870854400,0.7268544921875,-0.002144643571227789,0.001904160133562982,-0.00021544973424170166
1772457155880872400,0.73687255859375,0.00008841694943839684,0.0028700886759907007,0.002448510378599167
1772457155890890200,0.74689013671875,-0.0011763182701542974,0.005212072748690844,-0.00247540813870728
1772457155900909300,0.756909423828125,-0.004746818449348211,0.0018943065078929067,0.0003890878288075328
1772457155910927400,0.76692724609375,-0.0013440974289551377,0.0038088529836386442,-0.0035422705113887787
1772457155920946400,0.776946533203125,-0.001210673013702035,0.0033103092573583126,0.000871652620844543
1772457155930964500,0.786964599609375,-0.0021939121652394533,0.019221099093556404,0.008779643103480339
1772457155940982300,0.796982177734375,-0.0010540791554376483,0.007121825125068426,0.04352350905537605
1772457155951001300,0.80700146484375,0.0009201221400871873,0.0028794098179787397,-0.005751362536102533
1772457155961019400,0.817019287109375,-0.002118011936545372,0.00455746753141284,-0.03293158486485481
1772457155971038500,0.82703857421875,-0.0007281082216650248,0.0011579424608498812,0.00449807895347476
1772457155981056500,0.837056396484375,-0.003855990944430232,0.006261890754103661,0.024933045729994774
1772457155991075600,0.84707568359375,-0.002161954063922167,0.006875482853502035,-0.005584116093814373
1772457156001093400,0.85709326171875,-0.0010271812789142132,0.004188619554042816,-0.018820026889443398
1772457156011111400,0.867111328125,-0.0024176177103072405,0.00304718897677958,-0.002201901515945792
1772457156021130200,0.877130126953125,-0.001163268811069429,0.003173955250531435,0.005754824727773666
1772457156031148500,0.8871484375,-0.0019265307346358895,0.004671450704336166,-0.019041601568460464
1772457156041167600,0.897167724609375,-0.0019382486352697015,0.001711081014946103,-0.013543771579861641
1772457156051185400,0.907185302734375,-0.002715891692787409,0.0028996497858315706,0.01537735853344202
1772457156061203500,0.917203369140625,-0.0022708773612976074,0.006025401875376701,0.00571860559284687
1772457156071222300,0.92722216796875,0.00010812433902174234,0.004504204262048006,-0.011877432465553284
1772457156081240300,0.937240234375,-0.0007773766992613673,0.0046211169101297855,-0.002975283656269312
1772457156091259400,0.94725927734375,-0.002409628126770258,0.004759601317346096,0.007764978799968958
1772457156101277400,0.95727734375,-0.0013800500892102718,0.0057676080614328384,-0.001984853995963931
1772457156111295500,0.96729541015625,-0.0024833977222442627,0.002169144805520773,-0.007196926511824131
1772457156121314300,0.977314208984375,-0.0028274781070649624,0.003453853540122509,0.0002814961189869791
1772457156131332400,0.987332275390625,0.0005020058597438037,0.002883404493331909,0.004029628820717335
1772457156141351400,0.997351318359375,-0.0010735202813521028,0.004258926957845688,-0.0015643407823517919
1772457156151369200,1.007369140625,-0.00395719101652503,0.0029872676823288202,-0.003971039317548275
1772457156161387500,1.017387451171875,-0.001088700257241726,0.006368683185428381,-0.0004511394945438951
1772457156171406600,1.027406494140625,-0.0019462381023913622,0.0067785438150167465,0.0022386531345546246
1772457156181424400,1.03742431640625,-0.0008026767172850668,0.004491953644901514,-0.002883670851588249
1772457156191443500,1.047443359375,-0.0024082965683192015,0.00401498144492507,-0.0018106831703335047
1772457156201461200,1.057461181640625,-0.0019491675775498152,0.004293015692383051,0.0005885586142539978
1772457156211480300,1.067480224609375,-0.0038919434882700443,0.006316485349088907,-0.00015712650201749057
1772457156221498400,1.077498291015625,-0.003431216813623905,0.0028064390644431114,-0.002226402750238776
1772457156231516400,1.087516357421875,0.00023036343918647617,0.005269596818834543,-0.0007510114228352904
1772457156241535500,1.097535400390625,-0.0031995216850191355,0.0057377805933356285,0.00017230652156285942
1772457156251553300,1.10755322265625,-0.0005624596378766,0.005065332166850567,0.0014253237750381231
1772457156261572400,1.117572265625,-0.0032501218374818563,0.005287706386297941,-0.001219727797433734
1772457156271590400,1.12759033203125,-0.0028125643730163574,0.0039116512052714825,-0.0024527714122086763
1772457156281608400,1.1376083984375,-0.0019113506423309445,0.00532685499638319,-0.0014213290996849537
1772457156291627500,1.14762744140625,-0.00009241169027518481,0.004281031433492899,-0.00039707732503302395
1772457156301645600,1.1576455078125,-0.0007648598402738571,0.0016431703697890043,0.00044341632747091353
1772457156311664400,1.167664306640625,-0.003328684950247407,0.0036035231314599514,-0.001856755930930376
1772457156321682400,1.177682373046875,-0.002814961364492774,0.00395585922524333,-0.0020751350093632936
1772457156331700200,1.1877001953125,0.0000476705827168189,0.0010908307740464807,0.0006900250446051359
1772457156341719300,1.19771923828125,-0.00392816262319684,0.0037614486645907164,-0.0009110674145631492
1772457156351737600,1.207737548828125,-0.00015659387281630188,0.005642705596983433,-0.0004519384237937629
1772457156361756400,1.21775634765625,0.0011558119440451264,0.003014165675267577,0.001119060325436294
1772457156371774500,1.2277744140625,-0.002371278591454029,0.003704723436385393,-0.00048123320448212326
1772457156381792300,1.237792236328125,0.00010226538870483637,0.003594468580558896,-0.0009369000908918679
1772457156391811300,1.247811279296875,-0.0010998855577781796,0.0023286680225282907,0.002025866648182273
1772457156401829400,1.257829345703125,-0.0012508867075666785,0.005858954507857561,0.0006554039428010583
1772457156411848200,1.26784814453125,-0.00353428116068244,0.005380916874855757,0.0011052117915824056
1772457156421866500,1.277866455078125,0.0005241101025603712,0.003973170183598995,-0.0008900284301489592
1772457156431885600,1.287885498046875,-0.001427987008355558,0.004026167094707489,0.00012596751912496984
1772457156441903400,1.2979033203125,-0.0012532835826277733,0.004607002250850201,0.0006122607155703008
1772457156451921400,1.30792138671875,0.0002564624010119587,0.004482366610318422,-0.0018048242200165987
1772457156461940200,1.317940185546875,-0.0008665926288813353,0.003742540255188942,0.0024503744207322598
1772457156471958300,1.327958251953125,-0.0007534082396887243,0.004577973857522011,-0.0015507587231695652
1772457156481977300,1.337977294921875,-0.0011249192757532,0.0032703618053346872,-0.002511627273634076
1772457156491995400,1.347995361328125,-0.0008988168556243181,0.004159058444201946,-0.00013448962999973446
1772457156502013400,1.358013427734375,-0.002639458980411291,0.0037143107037991285,0.0015994944842532277
1772457156512032500,1.368032470703125,-0.002558232517912984,0.00487278588116169,-0.000672448193654418
1772457156522050300,1.37805029296875,-0.0003683151735458523,0.002642122097313404,0.0014199974248185754
1772457156532069400,1.3880693359375,-0.0026282735634595156,0.003899400355294347,0.0017829863354563713
1772457156542087400,1.39808740234375,-0.003938548732548952,0.0028362665325403214,-0.0009233179152943194
1772457156552105500,1.40810546875,-0.0015241270884871483,0.005090366117656231,0.0004878911131527275
1772457156562124500,1.41812451171875,-0.0014349111588671803,0.0034887411165982485,-0.0010745854815468192
1772457156572142300,1.428142333984375,0.0004649879119824618,0.006390254944562912,0.00042770366417244077
1772457156582161400,1.438161376953125,0.0007997472421266139,0.004063451196998358,0.00010972223390126601
1772457156592179200,1.44817919921875,-0.0009587379754520953,0.0057433731853961945,0.0005123922019265592
1772457156602197500,1.458197509765625,-0.0005523395957425237,0.004732703324407339,0.0011430287268012762
1772457156612216600,1.468216552734375,-0.0011880361707881093,0.0017054883064702153,0.00017443705291952938
1772457156622234400,1.478234375,-0.00045327001134864986,0.005578257143497467,-0.0011664645280689
1772457156632253400,1.48825341796875,-0.0023366576060652733,0.004688494838774204,-0.0025925873778760433
1772457156642271500,1.498271484375,-0.0003115898580290377,0.0019361181184649467,-0.000404534162953496
1772457156652289300,1.508289306640625,-0.0010908307740464807,0.004259193316102028,-0.00013688647595699877
1772457156662308400,1.518308349609375,-0.0036783581599593163,0.005246693734079599,0.00003382214708835818
1772457156672326400,1.528326416015625,-0.0020929782185703516,0.0037462685722857714,0.00037523938226513565
1772457156682345500,1.538345458984375,-0.0024828650057315826,0.0038453382439911366,0.0013899037148803473
1772457156692363500,1.548363525390625,-0.0010373012628406286,0.002231995342299342,-0.00012197277828818187
1772457156702382300,1.55838232421875,-0.0012295814231038094,0.004975850228220224,0.0005440838285721838
1772457156712400400,1.568400390625,-0.0029947245493531227,0.0038482677191495895,-0.00115394766908139
1772457156722418400,1.57841845703125,-0.001395496423356235,0.005790777504444122,0.0011563445441424847
1772457156732437200,1.588437255859375,-0.0015909724170342088,0.0036658411845564842,-0.0001906823308672756
1772457156742455600,1.59845556640625,-0.002581934677436948,0.004991562571376562,0.0007451524725183845
1772457156752474400,1.608474365234375,-0.0005483448621816933,0.0037864823825657368,-0.0010548781137913465
1772457156762492400,1.618492431640625,-0.0015752597246319056,0.00210682675242424,-0.0011598066193982959
1772457156772510200,1.62851025390625,-0.0007685882737860084,0.004571848548948765,0.0015060176374390721
1772457156782529300,1.638529296875,-0.0016144082183018327,0.003641606541350484,-0.0001781654718797654
1772457156792547600,1.648547607421875,-0.0017358483746647835,0.004580104257911444,0.0010516822803765535
1772457156802566400,1.65856640625,-0.0005619269795715809,0.0034208304714411497,0.00022530343267135322
1772457156812584400,1.66858447265625,0.0004966795677319169,0.0024977787397801876,0.000248472933890298
1772457156822601700,1.678601806640625,-0.002201901515945792,0.0019449065439403057,-0.002669286448508501
1772457156832620800,1.688620849609375,-0.0006988134700804949,0.0059998356737196445,-0.0017073525814339519
1772457156842638800,1.698638916015625,-0.0014410364674404263,0.005579056218266487,0.0008564725867472589
1772457156852658000,1.708657958984375,-0.0030834078788757324,0.005000883713364601,-0.0012956279097124934
1772457156862676000,1.718676025390625,-0.0018216022290289402,0.005672266706824303,0.012614328414201736
1772457156872693800,1.72869384765625,-0.0031904669012874365,0.0038077877834439278,0.014095845632255077
1772457156882712800,1.738712890625,-0.0034120420459657907,0.0027204190846532583,-0.002813895931467414
1772457156892730600,1.748730712890625,-0.0028479844331741333,0.002623746171593666,-0.008899219334125519
1772457156902749700,1.758749755859375,-0.00222001108340919,0.002671683207154274,0.003946804907172918
1772457156912768000,1.76876806640625,-0.0013235911028459668,0.004824316129088402,0.0032352081034332514
1772457156922785800,1.778785888671875,-0.002275937469676137,0.0008769789128564298,-0.017607489600777626
1772457156932804900,1.788804931640625,-0.003025883575901389,0.0052048820070922375,-0.01540771871805191
1772457156942823000,1.798822998046875,-0.0019379822770133615,0.006806773599237204,0.00908803753554821
1772457156952841700,1.808841796875,-0.003549727378413081,0.004308728501200676,0.005291967187076807
1772457156962859800,1.81885986328125,-0.0015664712991565466,0.004206995479762554,-0.010291253216564655
1772457156972877800,1.8288779296875,-0.0029142971616238356,0.0064773401245474815,-0.00290444353595376
1772457156982897000,1.83889697265625,-0.0009898969437927008,0.004229632206261158,0.007358047645539045
1772457156992915000,1.8489150390625,-0.0018469021888449788,0.003820304526016116,0.001984587637707591
1772457157002933800,1.858933837890625,-0.0013073458103463054,0.004293015692383051,-0.007683486212044954
1772457157012951800,1.868951904296875,-0.0017009610310196877,0.004292749334126711,0.0005358280031941831
1772457157022969600,1.878969482421875,-0.0018197379540652037,0.004270378965884447,0.0022024342324584723
1772457157032988700,1.88898876953125,0.0005925533478148282,0.0049010151997208595,-0.0018572885310277343
1772457157043007000,1.899007080078125,-0.002514823107048869,0.003163302782922983,-0.0003406183095648885
1772457157053025800,1.90902587890625,-0.00250523560680449,0.0019917781464755535,-0.0005994775565341115
1772457157063043800,1.9190439453125,-0.0007374293054454029,0.003774764481931925,0.0036751623265445232
1772457157073063000,1.92906298828125,-0.002600044244900346,0.003710848744958639,-0.0018032263033092022
1772457157083080700,1.939080810546875,-0.0016245282022282481,0.007792941760271788,-0.0007446198142133653
1772457157093098800,1.9490986328125,-0.0009526127250865102,0.0030953921377658844,0.0011448930017650127
1772457157103117800,1.959117919921875,-0.0019563580863177776,0.0017696705181151628,0.0011163970921188593
1772457157113135900,1.969135986328125,-0.002147839404642582,0.003427754621952772,-0.001091629732400179
1772457157123155000,1.979155029296875,-0.0034908715169876814,0.00407463638111949,-0.0003483414766378701
1772457157133172700,1.9891728515625,-0.0013693973887711763,0.0052110073156654835,0.002229065867140889
1772457157143190800,1.999190673828125,-0.0005624596378766,0.0018738001817837358,0.0037465349305421114
1772457157153209900,2.0092099609375,-0.00035127095179632306,0.0034059167373925447,-0.0004828310920856893
1772457157163228000,2.019227783203125,-0.001886317040771246,0.004838431254029274,0.002633600030094385
1772457157173247000,2.0292470703125,-0.0004649879119824618,0.0036767602432519197,0.0028698223177343607
1772457157183264800,2.0392646484375,-0.0009376989910379052,0.002656503114849329,-0.0009957558941096067
1772457157193282800,2.04928271484375,-0.0004450142150744796,0.003823234001174569,0.0007262440049089491
1772457157203302000,2.059302001953125,-0.0009049421059899032,0.004125769250094891,0.001785383210517466
1772457157213319700,2.069319580078125,-0.0014082795241847634,0.002862099092453718,0.0015033544041216373
1772457157223338800,2.0793388671875,-0.0011073424248024821,0.0036690370179712772,0.0037294907961040735
1772457157233356800,2.089356689453125,-0.0034357442054897547,0.0046173888258636,-0.003629888640716672
1772457157243374800,2.099374755859375,-0.003213370218873024,0.001680987305007875,-0.0015883093001320958
1772457157253394000,2.109393798828125,0.0005291700945235789,0.003341468283906579,0.0005371595616452396
1772457157263411700,2.11941162109375,-0.0034205641131848097,0.001969141187146306,0.001228516222909093
1772457157273430800,2.1294306640625,-0.0008218514849431813,0.0037348170299082994,-0.00033582461765035987
1772457157283448800,2.13944873046875,-0.000988032785244286,0.003183276392519474,0.00034434671397320926
1772457157293467000,2.149466796875,-0.0026929883752018213,0.005553755909204483,-0.001561677665449679
1772457157303486000,2.15948583984375,-0.00039867521263659,0.004495415836572647,-0.0006234460161067545
1772457157313503700,2.169503662109375,-0.0022245384752750397,0.003939081449061632,0.00045566685730591416
1772457157323522800,2.179522705078125,0.0010570086305961013,0.002545981900766492,0.003197923768311739
1772457157333540900,2.189540771484375,-0.0000804274677648209,0.005274923052638769,-0.002326004905626178
1772457157343559000,2.199558837890625,-0.0025598304346203804,0.003760383464396,0.002296443795785308
1772457157353577700,2.20957763671875,-0.002231462625786662,0.0038890140131115913,-0.0011353056179359555
1772457157363595800,2.219595703125,-0.0021342572290450335,0.004278101958334446,-0.00017204020696226507
1772457157373614800,2.22961474609375,-0.0014290522085502744,0.003972637467086315,-0.00013635384675581008
1772457157383633000,2.2396328125,-0.003352919826284051,0.006773483939468861,0.00038535939529538155
1772457157393650700,2.249650634765625,-0.003614708548411727,0.005052549298852682,-0.00006311691686278209
1772457157403669800,2.259669677734375,-0.0031590417493134737,0.004058124963194132,-0.0006135923322290182
1772457157413687800,2.269687744140625,0.0004111920716241002,0.004385427106171846,-0.003230147995054722
1772457157423707000,2.279706787109375,-0.0011478224769234657,0.004467452876269817,-0.0004956142511218786
1772457157433725000,2.289724853515625,-7.989483492565341e-7,0.002700711600482464,-0.0006399576086550951
1772457157443742700,2.29974267578125,-0.0015395734226331115,0.00375985074788332,-0.0015835155500099063
1772457157453761800,2.30976171875,-0.005607019178569317,0.00555109279230237,-0.000966993800830096
1772457157463779800,2.31977978515625,0.00012010856153210625,0.0034549187403172255,-0.0005083974683657289
1772457157473798700,2.329798583984375,-0.0009470200748182833,0.003175287041813135,0.0015664712991565466
1772457157483817000,2.33981689453125,-0.001243696198798716,0.004781705792993307,-0.0007243797881528735
1772457157493834800,2.349834716796875,-0.0013496900210157037,0.003373426152393222,0.0005403553950600326
1772457157503853800,2.359853759765625,-0.0007693872321397066,0.003662378992885351,0.001692705205641687
1772457157513872000,2.369871826171875,0.00001864212754298933,0.004222175572067499,-0.0015020228456705809
1772457157523890700,2.379890625,-0.00304638990201056,0.003969441633671522,0.0009126652730628848
1772457157533908700,2.38990869140625,-0.001216265605762601,0.005005144979804754,7.989483492565341e-7
1772457157543926800,2.3999267578125,0.0011515507940202951,0.004449343308806419,0.0013664679136127234
1772457157553945900,2.40994580078125,-0.0006910903030075133,0.006701844744384289,-0.002614957746118307
1772457157563964000,2.4199638671875,-0.001327053178101778,0.004733768757432699,-0.0008636631537228823
1772457157573982700,2.429982666015625,-0.0028778119012713432,0.004492220003157854,-0.0006889597862027586
1772457157584000800,2.440000732421875,-0.0009097357979044318,0.003982757218182087,-0.0022210762836039066
1772457157594019800,2.450019775390625,-0.0007507451227866113,0.004326837603002787,-0.0020570256747305393
1772457157604038000,2.460037841796875,-0.0005941512063145638,0.003352919826284051,-0.001463673310354352
1772457157614056000,2.470055908203125,0.0007150587625801563,0.004867193289101124,-0.0007475492893718183
1772457157624075000,2.480074951171875,-0.0017845842521637678,0.004534298088401556,0.001580319833010435
1772457157634092800,2.4900927734375,-0.0021640846971422434,0.005148422904312611,0.0007299724384211004
1772457157644112000,2.50011181640625,-0.000752875639591366,0.0044176517985761166,0.00026019083452410996
1772457157654129700,2.510129638671875,-0.0007243797881528735,0.005348692648112774,-0.00035659727291204035
1772457157664148000,2.52014794921875,-0.003206978552043438,0.005780657287687063,-0.00021917815320193768
1772457157674167000,2.5301669921875,-0.0018935075495392084,0.00373002327978611,0.00003861583536490798
1772457157684184800,2.540184814453125,-0.0001246359315700829,0.004238953348249197,-0.003290335414931178
1772457157694204000,2.550203857421875,-0.0012341088149696589,0.0040914141573011875,0.00027084347675554454
1772457157704221700,2.5602216796875,-0.00009214537567459047,0.004072239622473717,-0.0008862999966368079
1772457157714239700,2.57023974609375,-0.0002759034978225827,0.002123604528605938,-0.0014117417158558965
1772457157724258800,2.5802587890625,-0.0008125304593704641,0.003198722843080759,0.0005126585019752383
1772457157734276900,2.59027685546875,-0.0013765880139544606,0.005607818253338337,-0.0007366303470917046
1772457157744296000,2.6002958984375,-0.0003062635369133204,0.004283428192138672,-0.0008005462004803121
1772457157754313700,2.610313720703125,-0.002511893631890416,0.0042144525796175,-0.0006239786162041128
1772457157764331800,2.620331787109375,-0.0014090784825384617,0.005013667047023773,-0.0015813850332051516
1772457157774350800,2.630350830078125,-0.0012567456578835845,0.005789179354906082,-0.0008199872681871057
1772457157784368600,2.64036865234375,0.0003014698449987918,0.0017441042000427842,0.0023121563717722893
1772457157794387700,2.6503876953125,-0.002198439557105303,0.005850166082382202,0.00009267800487577915
1772457157804406000,2.660406005859375,-0.0013792511308565736,0.004763596225529909,-0.0009427590412087739
1772457157814423800,2.670423828125,0.00034914040588773787,0.004521514754742384,0.0011715245200321078
1772457157824444200,2.680444091796875,-0.003733485471457243,0.006645918358117342,-0.0022216090001165867
1772457157834462200,2.690462158203125,-0.003344397759065032,0.005665608681738377,-0.0028037759475409985
1772457157844481300,2.700481201171875,-0.0035055188927799463,0.0032285500783473253,-0.0026557042729109526
1772457157854499000,2.7104990234375,-0.0034402713645249605,0.004649346694350243,0.0004767058417201042
1772457157864517000,2.72051708984375,-0.00224930583499372,0.006833404768258333,-0.004024036228656769
1772457157874536000,2.730535888671875,-0.0015062838792800903,0.003707120195031166,-0.0009683253592811525
1772457157884554200,2.74055419921875,-0.0019283948931843042,0.003878894029185176,0.0001573928166180849
1772457157894573300,2.7505732421875,-0.00130947632715106,0.006583068054169416,0.000580036488827318
1772457157904591000,2.760591064453125,-0.004099137615412474,0.005090632475912571,0.0007597998483106494
1772457157914609200,2.770609130859375,-0.0012186624808236957,0.002757703186944127,0.0004370247188489884
1772457157924628200,2.780628173828125,-0.002037051832303405,0.005706355441361666,0.000006391586794052273
1772457157934646000,2.79064599609375,-0.0010546117555350065,0.003568103304132819,-0.0005097290268167853
1772457157944665000,2.8006650390625,-0.0012242551892995834,0.003967577591538429,-0.0026818031910806894
1772457157954683100,2.81068310546875,-0.0038458709605038166,0.0054765245877206326,0.00021758026559837162
1772457157964701200,2.820701171875,-0.00006125270738266408,0.005085838492959738,0.0008721852791495621
1772457157974720300,2.83072021484375,-0.002216548891738057,0.004251203965395689,0.002130795270204544
1772457157984738000,2.840738037109375,-0.003659449517726898,0.002800047630444169,-0.0007523429812863469
1772457157994757000,2.850757080078125,-0.002046905690804124,0.0046160570345819,-0.0017230651574209332
1772457158004775200,2.860775146484375,-0.00041971419705078006,0.0042719766497612,-0.00015526228526141495
1772457158014793200,2.870793212890625,-0.0022919164039194584,0.004670917987823486,-0.0024463797453790903
1772457158024812300,2.880812255859375,-0.0005352954030968249,0.00512818293645978,-0.00014540860138367862
1772457158034830000,2.890830078125,-0.0021369203459471464,0.005702360533177853,0.0016026903176680207
1772457158044849200,2.90084912109375,-0.0013986921403557062,0.00264824740588665,-0.0004138552176300436
1772457158054867200,2.9108671875,-0.0013872405979782343,0.004594485275447369,0.001032241270877421
1772457158064885200,2.92088525390625,-0.00112438655924052,0.004555070772767067,0.0007004113867878914
1772457158074904300,2.930904296875,-0.0035441347863525152,0.00592633243650198,-0.003037335118278861
1772457158084922000,2.940922119140625,-0.00293400464579463,0.00481206551194191,-0.0026069683954119682
1772457158094941200,2.950941162109375,-0.00379021093249321,0.004324973560869694,-0.0012069445801898837
1772457158104959200,2.960959228515625,-0.0025563682429492474,0.00606295233592391,0.0006522081675939262
1772457158114977000,2.97097705078125,-0.0021915151737630367,0.004444815684109926,-0.0012157330056652427
1772457158124996000,2.98099609375,-0.0025534387677907944,0.005835785064846277,-0.0002865561400540173
1772457158135014100,2.99101416015625,-0.002974750939756632,0.0049369679763913155,-0.0002692455891519785
1772457158145033200,3.001033203125,-0.0008066715090535581,0.004083691164851189,0.0004439489566721022
1772457158155051300,3.01105126953125,-0.0007843009079806507,0.005302620120346546,0.0005901564727537334
1772457158165069000,3.021069091796875,-0.002612560987472534,0.005823268089443445,-0.0008721852791495621
1772457158175088000,3.031088134765625,-0.0009763148264028132,0.005629390012472868,0.000019707391402334906
1772457158185106000,3.04110595703125,-0.0020181434229016304,0.004387557972222567,-0.0025273398496210575
1772457158195125000,3.051125,-0.0006548712844960392,0.002460228279232979,-0.00039228363311849535
1772457158205143300,3.061143310546875,-0.0026434536557644606,0.005662146955728531,-0.0006079996819607913
1772457158215161000,3.0711611328125,-0.003734018187969923,0.0018935075495392084,-0.0025923210196197033
1772457158225180200,3.08118017578125,-0.0018293253378942609,0.002674346324056387,-0.0008492820779792964
1772457158235198200,3.0911982421875,-0.0016785904299467802,0.0031638352666050196,0.0006799050024710596
1772457158245217000,3.101217041015625,-0.0025276062078773975,0.006884537637233734,-0.001573928166180849
1772457158255235000,3.111235107421875,-0.0011717908782884479,0.002757703186944127,-0.0035481294617056847
1772457158265254100,3.121254150390625,0.0010815097484737635,0.003771835006773472,-0.00022157499915920198
1772457158275272200,3.131272216796875,-0.002844256116077304,0.003686613868921995,-0.0009108011145144701
1772457158285290200,3.141290283203125,-0.0025350630749017,0.0067758806981146336,-0.001910285442136228
1772457158295309000,3.15130908203125,0.000472977408207953,0.0007869640830904245,-0.0008673915872350335
1772457158305327000,3.1613271484375,-0.001463406952098012,0.004551342222839594,0.0002479403046891093
1772457158315346200,3.17134619140625,-0.00004660531703848392,0.0033870083279907703,0.0002545981842558831
1772457158325364200,3.1813642578125,-0.003837881376966834,0.005647233221679926,-0.0006532734259963036
1772457158335382300,3.19138232421875,-0.0024716798216104507,0.004192348103970289,-0.0002860235108528286
1772457158345401000,3.201401123046875,-0.002406698651611805,0.004086620640009642,0.002118278294801712
1772457158355419100,3.211419189453125,0.00012490226072259247,0.005037901923060417,-0.0005984122981317341
1772457158365438200,3.221438232421875,-0.0001752359967213124,0.004347876645624638,0.0002556634717620909
1772457158375456000,3.2314560546875,-0.00003009372085216455,0.0028628981672227383,-0.00006311691686278209
1772457158385474300,3.241474365234375,-0.0024074974935501814,0.004010187927633524,0.00046392265358008444
1772457158395493400,3.251493408203125,-0.0020354539155960083,0.0057401773519814014,0.003522563260048628
1772457158405511200,3.26151123046875,-0.0004346278728917241,0.003165699541568756,0.0006332996999844909
1772457158415530200,3.2715302734375,-0.0015845808666199446,0.003984355367720127,-0.0006311691831797361
1772457158425548000,3.281548095703125,-0.002560895634815097,0.0025238776579499245,-0.0015014902455732226
1772457158435566000,3.291566162109375,-0.003373426152393222,0.0048797097988426685,-0.002338788006454706
1772457158445585200,3.301585205078125,-0.0003249056462664157,0.001669269404374063,-0.001919340225867927
1772457158455603200,3.311603271484375,-0.0013126720441505313,0.004170776344835758,0.00003968110104324296
1772457158465622300,3.321622314453125,0.00042504051816649735,0.0017635452095419168,-0.00025060345069505274
1772457158475640000,3.33164013671875,-0.0021632856223732233,0.00398701848462224,-0.00033582461765035987
1772457158485658000,3.341658203125,-0.000027963191314483993,0.0020639498252421618,0.0003121224872302264
1772457158495677200,3.35167724609375,-0.0014274542918428779,0.0029233519453555346,0.001615207176655531
1772457158505695200,3.3616953125,-0.002366218715906143,0.0016756609547883272,0.00035739620216190815
1772457158515714000,3.371714111328125,-0.0005720470217056572,0.0052078114822506905,-0.0005664543714374304
1772457158525732000,3.381732177734375,-0.0013648699969053268,0.0034615767654031515,0.000910268456209451
1772457158535750100,3.391750244140625,-0.0006458165589720011,0.0059870523400604725,0.000290018244413659
1772457158545769200,3.401769287109375,-0.001234641415067017,0.005465871654450893,-0.0005917543894611299
1772457158555787000,3.411787109375,-0.002591255819424987,0.006425142288208008,-0.002377670258283615
1772457158565806000,3.42180615234375,-0.003412574529647827,0.004991828929632902,-0.0004247741890139878
1772457158575824400,3.431824462890625,-0.0019893813878297806,0.005006742663681507,-0.00007723167072981596
1772457158585842200,3.44184228515625,0.00039547940832562745,0.003698864486068487,0.00010466222738614306
1772457158595861200,3.451861328125,-0.0016980315558612347,0.0030506509356200695,-0.0020594224333763123
1772457158605879000,3.461879150390625,-0.0028506475500762463,0.005635248962789774,-0.00047697214176878333
1772457158615898000,3.471898193359375,0.00040986048406921327,0.0036107138730585575,0.00035499935620464385
1772457158625916200,3.481916259765625,-0.002231196267530322,0.004065581597387791,0.0015896408585831523
1772457158635934200,3.491934326171875,-0.0029585056472569704,0.0033153691329061985,-0.0010189254535362124
1772457158645953300,3.501953369140625,-0.0030506509356200695,0.004446413833647966,0.0006325007416307926
1772457158655971000,3.51197119140625,-0.0035353463608771563,0.003457049373537302,0.0004269047058187425
1772457158665990100,3.521990234375,-0.0008756473544053733,0.004215783905237913,-0.0005858954391442239
1772457158676008200,3.53200830078125,-0.0023238742724061012,0.002709500025957823,-0.00007084008393576369
1772457158686026000,3.54202587890625,-0.0019893813878297806,0.004057325888425112,0.00011824435205198824
1772457158696045000,3.552045166015625,-0.0016437029698863626,0.0030426615849137306,0.0003177151083946228
1772457158706063000,3.56206298828125,-0.0026069683954119682,0.004977181553840637,-0.00016192019393201917
1772457158716082200,3.572082275390625,-0.0012218583142384887,0.0035412053111940622,0.0013771206140518188
1772457158726100200,3.582100341796875,-0.0007659250986762345,0.004282363224774599,-0.0001840244367485866
1772457158736118000,3.592117919921875,-0.0005656554130837321,0.004476773552596569,-0.0015504923649132252
1772457158746137000,3.60213720703125,-0.002001631772145629,0.0032200280111283064,-0.0011345066595822573
1772457158756155100,3.612155029296875,-0.0008221178431995213,0.0019387812353670597,-0.001347293145954609
1772457158766174000,3.622174072265625,-0.002590723102912307,0.006874950136989355,-0.0014183996245265007
1772457158776192300,3.632192138671875,-0.002585130510851741,0.0038629150949418545,-0.0026413232553750277
1772457158786210000,3.6422099609375,-0.002540922025218606,0.004862932022660971,0.0019259981345385313
1772457158796229000,3.65222900390625,-0.0017739315517246723,0.004764128942042589,-0.0010370349045842886
1772457158806247200,3.6622470703125,-0.0024506407789885998,0.006847519893199205,0.00001757686368364375
1772457158816266000,3.672265869140625,-0.0023406522814184427,0.004175303969532251,-0.0010285128373652697
1772457158826283800,3.68228369140625,0.0005438174703158438,0.001859685406088829,-0.0006844323943369091
1772457158836301600,3.692301513671875,0.001356614287942648,0.0028730181511491537,0.0009286442655138671
1772457158846320600,3.702320556640625,-0.0014602112350985408,0.005589975044131279,-0.0046818372793495655
1772457158856338700,3.712338623046875,-0.0024855281226336956,0.005531651899218559,-0.00033182985498569906
1772457158866357500,3.722357421875,-0.002159823663532734,0.004308728501200676,0.0002820287481881678
1772457158876375600,3.73237548828125,-0.0012010856298729777,0.005474926438182592,-0.0007113303290680051
1772457158886393600,3.7423935546875,-0.0010061422362923622,0.0046698530204594135,-0.000019707391402334906
1772457158896412700,3.75241259765625,-0.003409645054489374,0.005409945268183947,0.0009853695519268513
1772457158906430700,3.7624306640625,-0.002784867538139224,0.0068179587833583355,0.0008676578872837126
1772457158916449500,3.772449462890625,-0.001597896683961153,0.005784652195870876,0.00036378781078383327
1772457158926467600,3.782467529296875,-0.000711064029019326,0.005400091875344515,0.0005352954030968249
1772457158936486000,3.79248583984375,-0.0036535905674099922,0.0038922098465263844,-0.00020399813365656883
1772457158946504700,3.802504638671875,-0.0025188177824020386,0.0020487697329372168,-0.001264202524907887
1772457158956522800,3.812522705078125,0.00013156015484128147,0.002442118711769581,-0.0011209244839847088
1772457158966541800,3.822541748046875,-0.0012958941515535116,0.003183542750775814,-0.0015547533985227346
1772457158976559600,3.8325595703125,-0.0015659386990591884,0.0031675638165324926,0.002025866648182273
1772457158986577700,3.84257763671875,-0.0017044231062754989,0.0054549528285861015,-0.001457814360037446
1772457158996596500,3.852596435546875,-0.001998968655243516,0.0041092573665082455,0.0008072041091509163
1772457159006614800,3.86261474609375,-0.00033182985498569906,0.003832288784906268,-0.001725728390738368
1772457159016633900,3.8726337890625,-0.0022056300658732653,0.006105829495936632,-0.0011715245200321078
1772457159026651600,3.882651611328125,-0.00007243797881528735,0.0027811392210423946,-0.0012988236267119646
1772457159036669700,3.892669677734375,0.0012607404496520758,0.004376106429845095,-0.0003091930120717734
1772457159046688500,3.9026884765625,0.0014887070283293724,0.004807271994650364,0.0015691345324739814
1772457159056706600,3.91270654296875,-0.0011867046123370528,0.004535097163170576,-0.0036815537605434656
1772457159066725600,3.9227255859375,-0.000996821210719645,0.005228584166616201,0.0006106628570705652
1772457159076743700,3.93274365234375,0.0010772485984489322,0.006559898145496845,-0.0013012205017730594
1772457159086761700,3.94276171875,-0.0013912353897467256,0.005154015496373177,-0.0009976201690733433
1772457159096780500,3.952780517578125,-0.0008253136184066534,0.0021915151737630367,-0.0025835325941443443
1772457159106798600,3.962798583984375,-0.0019094864837825298,0.0036450685001909733,0.0005336974863894284
1772457159116817700,3.972817626953125,-0.0018274611793458462,0.0046416232362389565,-0.0024615598376840353
1772457159126835700,3.982835693359375,-0.0023161512799561024,0.005673864856362343,-0.0024506407789885998
1772457159136854500,3.9928544921875,0.0006436860421672463,0.0027212179265916348,0.0009600695921108127
1772457159146872800,4.002872802734375,-0.00045593318645842373,0.004769721534103155,0.0001627191377338022
1772457159156890600,4.012890625,-0.0007004113867878914,0.0021260015200823545,0.0014732606941834092
1772457159166909700,4.02290966796875,-0.00005832322858623229,0.004507932811975479,0.00210682675242424
1772457159176927500,4.032927490234375,-0.003070891136303544,0.003207244910299778,0.000014381069377122913
1772457159186945800,4.04294580078125,-0.0007334345718845725,0.003318032482638955,-0.0001280980504816398
1772457159196964900,4.05296484375,0.0015270565636456013,0.003216033335775137,-0.0006407565670087934
1772457159206982700,4.062982666015625,0.00027324032271280885,0.00433056615293026,-0.0014343785587698221
1772457159217001700,4.073001708984375,-0.0014282532501965761,0.004268514458090067,0.00034221619716845453
1772457159227019500,4.08301953125,-0.001261539408005774,0.005015797447413206,-0.000681236619129777
1772457159237038600,4.09303857421875,-0.00018482338055036962,0.0037673076149076223,-0.0026668894570320845
1772457159247056600,4.103056640625,-0.001106809708289802,0.005816876422613859,-0.0025366609916090965
1772457159257074700,4.11307470703125,-0.002576342085376382,0.004067978356033564,0.0007094661123119295
1772457159267093800,4.12309375,-0.0033164345659315586,0.0052176653407514095,0.00008362325752386823
1772457159277111800,4.13311181640625,-0.0029622339643538,0.003060770919546485,0.0025451830588281155
1772457159287130600,4.143130615234375,0.0002593918761704117,0.0037063213530927896,-0.0014511564513668418
1772457159297148700,4.153148681640625,-0.0030605047941207886,0.002831739140674472,0.0016189356101676822
1772457159307166500,4.16316650390625,-0.0010458233300596476,0.0025475798174738884,0.00006072007090551779
1772457159317185500,4.173185546875,-0.0030000510159879923,0.00563977612182498,0.0002996056282427162
1772457159327203800,4.183203857421875,-0.0005938849062658846,0.005782521795481443,0.001386707997880876
1772457159337222700,4.19322265625,-0.00016884441720321774,0.004668787587434053,-0.0007653924985788763
1772457159347240700,4.20324072265625,-0.00017550231132190675,0.005001416429877281,0.00032730249222368
1772457159357258500,4.213258544921875,0.00040986048406921327,0.004653075244277716,-0.0015451660146936774
1772457159367277600,4.223277587890625,-0.0010612696642056108,0.004366518929600716,-0.0001656486128922552
1772457159377295600,4.233295654296875,-0.002097771968692541,0.0039867521263659,0.0005821670056320727
1772457159387314400,4.243314453125,-0.0016666061710566282,0.004860801622271538,-0.0007677893154323101
1772457159397332700,4.253332763671875,-0.0006956176948733628,0.0031153657473623753,-0.0005454153870232403
1772457159407350500,4.2633505859375,-0.0025561018846929073,0.0057316552847623825,-0.003436543047428131
1772457159417369600,4.27336962890625,-0.0006966829532757401,0.002226136391982436,0.00037284253630787134
1772457159427387600,4.2833876953125,-0.0011667308863252401,0.0036157737486064434,-0.0010242518037557602
1772457159437406500,4.293406494140625,-0.001273523666895926,0.004444282967597246,-0.0014644722687080503
1772457159447424800,4.3034248046875,-0.00199284334667027,0.005638711154460907,-0.0037233654875308275
1772457159457442800,4.31344287109375,-0.0013251889031380415,0.004967061802744865,-0.000943025341257453
1772457159467461600,4.323461669921875,-0.002626675646752119,0.002919357270002365,0.0011614045361056924
1772457159477479700,4.333479736328125,-0.000606934423558414,0.005252819042652845,-0.001868207473307848
1772457159487498800,4.343498779296875,-0.002258893335238099,0.005549228750169277,-0.0006881608278490603
1772457159497516500,4.3535166015625,-0.0027739484794437885,0.004214984830468893,-0.0018690064316615462
1772457159507534800,4.363534912109375,-0.0024738102219998837,0.0036751623265445232,0.0016940367640927434
1772457159517553700,4.3735537109375,-0.002225603675469756,0.006185990758240223,-0.0019377160351723433
1772457159527571700,4.38357177734375,-0.0030511836521327496,0.004534298088401556,0.0005315669695846736
1772457159537590800,4.3935908203125,-0.0012274509062990546,0.005375856999307871,0.0022210762836039066
1772457159547608600,4.403608642578125,-0.0010183927370235324,0.002936135046184063,0.0007297061383724213
1772457159557626600,4.413626708984375,0.0004316983977332711,0.003716707695275545,-0.0017757958266884089
1772457159567645400,4.4236455078125,-0.0021995047573000193,0.002776611829176545,-0.00007217166421469301
1772457159577663700,4.433663818359375,-0.002602973720058799,0.005291967187076807,-0.0002772350562736392
1772457159587682800,4.443682861328125,-0.0018780612153932452,0.004434163216501474,-0.0007603325066156685
1772457159597700600,4.45370068359375,-0.0014658038271591067,0.005785184912383556,-0.00036724991514347494
1772457159607718700,4.46371875,-0.0010450243717059493,0.004789695143699646,-0.005146292503923178
1772457159617737500,4.473737548828125,-0.0009635316673666239,0.003945739474147558,0.0002580603177193552
1772457159627755500,4.483755615234375,-0.00012170646368758753,0.00199284334667027,-0.0005139900604262948
1772457159637774600,4.493774658203125,-0.0016980315558612347,0.0037982002831995487,-0.000027164242055732757
1772457159647792600,4.503792724609375,-0.0012149340473115444,0.0027150926180183887,-0.0020775320008397102
1772457159657810700,4.513810791015625,-0.001136370818130672,0.004178499802947044,0.0015779229579493403
1772457159667829800,4.523829833984375,-0.0010610034223645926,0.0034194989129900932,0.0004932174342684448
1772457159677847600,4.53384765625,-0.0012266519479453564,0.0032437301706522703,0.0001728391507640481
1772457159687866600,4.54386669921875,-0.0008109325426630676,0.005702626891434193,-0.0013294500531628728
1772457159697884700,4.553884765625,0.0012687299167737365,0.0027510453946888447,-0.0007334345718845725
1772457159707902700,4.56390283203125,-0.005428321193903685,0.0043707797303795815,-0.0014205301413312554
1772457159717921800,4.573921875,-0.0009440905996598303,0.004561728797852993,0.0020455741323530674
1772457159727939600,4.583939697265625,-0.003549194661900401,0.005537244491279125,0.0012367720482870936
1772457159737958700,4.593958740234375,0.0012865731259807944,0.002891660202294588,-0.0005624596378766
1772457159747976400,4.6039765625,-0.0024719461798667908,0.003081543603911996,0.0014223942998796701
1772457159757994800,4.613994873046875,-0.00043116576853208244,0.0037020600866526365,-0.0022034994326531887
1772457159768013800,4.624013916015625,-0.0035984632559120655,0.003948935307562351,0.001427720650099218
1772457159778031600,4.634031494140625,-0.001645567244850099,0.0046906257048249245,0.001329982653260231
1772457159788050700,4.64405078125,-0.003466370515525341,0.00612420542165637,-0.0012282498646527529
1772457159798068700,4.65406884765625,0.0001179780374513939,0.004209392238408327,-0.0021734058391302824
1772457159808086500,4.66408642578125,-0.0026469158474355936,0.002892725635319948,-0.0015038870042189956
1772457159818105600,4.674105712890625,-0.001014664419926703,0.0030154972337186337,0.0008434231276623905
1772457159828123600,4.68412353515625,-0.004567853640764952,0.005662945564836264,0.0005427522119134665
1772457159838142700,4.694142822265625,-0.0036005936563014984,0.004260525107383728,-0.00021438446128740907
1772457159848160500,4.704160400390625,-0.003564108395949006,0.0027353328187018633,-0.0011369034182280302
1772457159858178600,4.714178466796875,-0.0010801780736073852,0.0040826257318258286,-0.0003296993381809443
1772457159868197600,4.72419775390625,-0.001751827308908105,0.001600559800863266,0.00040959418402053416
1772457159878215400,4.73421533203125,-0.0006956176948733628,0.003054911969229579,-0.0016703346045687795
1772457159888234500,4.744234375,-0.0019600866362452507,0.0049375006929039955,-0.00045566685730591416
1772457159898252500,4.75425244140625,-0.0014732606941834092,0.00418382603675127,0.000022370553779182956
1772457159908270600,4.7642705078125,0.0025656893849372864,0.005245894659310579,0.0006077333819121122
1772457159918289700,4.77428955078125,-0.0010580739472061396,0.0028551749419420958,-0.001347293145954609
1772457159928307500,4.784307373046875,-0.00108257494866848,0.0025273398496210575,-0.0008040083339437842
1772457159938326500,4.794326416015625,0.0005845638806931674,0.002490588231012225,0.0001430117554264143
1772457159948344600,4.804344482421875,-0.0034554514568299055,0.004021639470010996,0.0006130596739239991
1772457159958362600,4.814362548828125,-0.0025654230266809464,0.0033073797821998596,-0.0001968075957847759
1772457159968381700,4.824381591796875,-0.0002894856152124703,0.004916994366794825,-0.0009150621481239796
1772457159978399500,4.8343994140625,-0.0011472897604107857,0.005499161314219236,0.0006330333999358118
1772457159988418600,4.84441845703125,-0.002174737397581339,0.0016418388113379478,-0.000955009541939944
1772457159998436400,4.854436279296875,0.0015070828376337886,0.004236822947859764,0.00038509309524670243
1772457160008454700,4.86445458984375,-0.0008748483960516751,0.004324174486100674,0.000496945867780596
1772457160018473700,4.8744736328125,-0.0010362359462305903,0.005872536450624466,-0.0015507587231695652
1772457160028491500,4.884491455078125,-0.0013430321123450994,0.0028631645254790783,-0.0021459751296788454
1772457160038510600,4.894510498046875,-0.0015931029338389635,0.006118612363934517,-0.0024626250378787518
1772457160048528600,4.904528564453125,-0.0003981425834354013,0.0016474314033985138,0.002651176881045103
1772457160058546400,4.91454638671875,-0.0027265443932265043,0.006316218990832567,-0.0014080132823437452
1772457160068565500,4.9245654296875,-0.00017017599020618945,0.005768673028796911,0.001115598133765161
1772457160078583600,4.93458349609375,-0.0011936287628486753,0.004061587154865265,0.0007022755453363061
1772457160088602600,4.9446025390625,-0.0033774208277463913,0.005030977539718151,0.0012455604737624526
1772457160098620700,4.95462060546875,-0.0024106933269649744,0.0029859361238777637,-0.0020703414920717478
1772457160108638500,4.964638427734375,0.00045380264054983854,0.002130795270204544,-0.002858637133613229
1772457160118657500,4.974657470703125,-0.00039867521263659,0.002798982197418809,-0.0000031957933970261365
1772457160128675600,4.984675537109375,-0.0025387913919985294,0.002793655963614583,-0.00019520970818120986
1772457160138694400,4.9946943359375,0.0005305017111822963,0.002685797866433859,-0.0003403519804123789
1772457160148712700,5.004712646484375,-0.000586161739192903,0.005524461157619953,-0.0007707187905907631
1772457160158730500,5.01473046875,-0.0023094932548701763,0.004768389742821455,0.0002822950773406774
1772457160168749600,5.02474951171875,-0.0011012171162292361,0.0036330842413008213,-0.0006940197781659663
1772457160178767600,5.034767578125,-0.0024855281226336956,0.0051625375635921955,-0.00037284253630787134
1772457160188786400,5.044786376953125,-0.001710548298433423,0.0033622407354414463,-0.0006056028068996966
1772457160198804700,5.0548046875,-0.0004966795677319169,0.004532434046268463,0.0015646071406081319
1772457160208822500,5.064822509765625,-0.001106809708289802,0.005787315312772989,0.0005163869354873896
1772457160218841600,5.074841552734375,0.0006804376607760787,0.004811266902834177,-0.0007187871960923076
1772457160228859600,5.084859619140625,-0.0008953547803685069,0.004231496714055538,-0.001133174984715879
1772457160238878500,5.09487841796875,-0.0018658105982467532,0.0062520368956029415,-0.0011651329696178436
1772457160248896500,5.104896484375,0.0004844290087930858,0.005329784471541643,-0.0006729807937517762
1772457160258914600,5.11491455078125,-0.00202320353128016,0.00455773388966918,-0.0011022823164239526
1772457160268933600,5.12493359375,-0.00037044569035060704,0.004688761197030544,-0.0017712684348225594
1772457160278951700,5.13495166015625,-0.0008106662426143885,0.0038418760523200035,-0.0003755057114176452
1772457160288970500,5.144970458984375,-0.0003201119543518871,0.0030945930629968643,0.0006870955694466829
1772457160298988500,5.154988525390625,-0.0012492889072746038,0.0055002267472445965,-0.0002388855500612408
1772457160309006300,5.16500634765625,-0.003102316288277507,0.005309011787176132,-0.002453836612403393
1772457160319025400,5.175025390625,-0.002229332225397229,0.005113002844154835,0.00046072687837295234
1772457160329043700,5.185043701171875,-0.000565389113035053,0.00398568669334054,-0.0026703516487032175
1772457160339062500,5.1950625,-0.003232811111956835,0.004052798729389906,-0.001017061178572476
1772457160349080600,5.20508056640625,0.0001131843455368653,0.0054299188777804375,-0.0025073662400245667
1772457160359098600,5.2150986328125,0.0005970807396806777,0.004960670135915279,-0.0010314423125237226
1772457160369117400,5.225117431640625,-0.0012695288751274347,0.0024463797453790903,0.0020516992080956697
1772457160379135500,5.235135498046875,0.0003145193331874907,0.003674097126349807,0.00010865696822293103
1772457160389154600,5.245154541015625,-0.0014990933705121279,0.004174771253019571,-0.0013598100049421191
1772457160399172600,5.255172607421875,-0.0022602248936891556,0.004261590540409088,-0.0012783173006027937
1772457160409191700,5.265191650390625,-0.0036882117856293917,0.005050152540206909,-0.0019028285751119256
1772457160419209500,5.27520947265625,-0.0016197345685213804,0.002514290390536189,0.0002591255761217326
1772457160429227500,5.2852275390625,-0.00221974472515285,0.0038072550669312477,-0.0019686087034642696
1772457160439246600,5.29524658203125,-0.0018492990639060736,0.006058425176888704,0.0015816513914614916
1772457160449264600,5.3052646484375,-0.0005368932615965605,0.0049337721429765224,-0.00023542344570159912
1772457160459283700,5.31528369140625,0.00034354778472334146,0.0041555967181921005,-0.002397910226136446
1772457160469301500,5.325301513671875,-0.001865011639893055,0.006464290898293257,0.00025992453447543085
1772457160479319600,5.335319580078125,-0.0023550332989543676,0.0022096247412264347,0.0003211772127542645
1772457160489338600,5.345338623046875,-0.0005773733137175441,0.002972354181110859,-0.0010101370280608535
1772457160499356400,5.3553564453125,-0.0017041567480191588,0.005660548806190491,0.00044528054422698915
1772457160509374700,5.365374755859375,-0.0014807175612077117,0.005342300981283188,-0.0011065434664487839
1772457160519393800,5.375393798828125,-0.0007571366732008755,0.004449609667062759,-0.0024343954864889383
1772457160529411600,5.38541162109375,-0.001651692553423345,0.003318032482638955,-0.00152359448838979
1772457160539430700,5.3954306640625,-0.0013560815714299679,0.004168912302702665,0.0001310275256400928
1772457160549448400,5.405448486328125,-0.0028538433834910393,0.005111937876790762,-0.00007909588020993397
1772457160559467500,5.415467529296875,-0.0015986956423148513,0.0034115093294531107,0.00003355582884978503
1772457160569485600,5.425485595703125,-0.0010375675046816468,0.003757453989237547,0.0008831042214296758
1772457160579503600,5.435503662109375,-0.0018258632626384497,0.0018703379901126027,-0.0024767396971583366
1772457160589522700,5.445522705078125,-0.00044607947347685695,0.0047177900560200214,-0.001757952617481351
1772457160599540500,5.45554052734375,-0.0011486213188618422,0.0034234935883432627,0.00041784998029470444
1772457160609558500,5.46555859375,-0.003578755771741271,0.00437956815585494,-0.0021821942646056414
1772457160619577600,5.47557763671875,-0.00040000680019147694,0.004187288228422403,-0.0015443670563399792
1772457160629595400,5.485595458984375,-0.0023273364640772343,0.002088983543217182,0.0001347559446003288
1772457160639614500,5.495614501953125,-0.0009052084642462432,0.0016753945965319872,0.0001651159836910665
1772457160649632500,5.505632568359375,-0.002430933527648449,0.005461610853672028,-0.0004242415598127991
1772457160659651600,5.515651611328125,-0.0014484933344647288,0.004738030023872852,-0.0020788635592907667
1772457160669669600,5.525669677734375,-0.0014759238110855222,0.004760666750371456,-0.001059139147400856
1772457160679687400,5.5356875,-0.0010964233661070466,0.004681038204580545,0.0002247707889182493
1772457160689706500,5.54570654296875,0.0006612628931179643,0.0036389431916177273,0.002665824256837368
1772457160699724800,5.555724853515625,-0.003340402850881219,0.003614442190155387,-0.0031963258516043425
1772457160709743600,5.56574365234375,-0.0016226640436798334,0.003144926857203245,-0.0013720606220886111
1772457160719761700,5.57576171875,-0.001398159540258348,0.005234443116933107,-0.0007315703551284969
1772457160729779500,5.585779541015625,0.0005251753609627485,0.005021656397730112,-0.00037044569035060704
1772457160739798500,5.595798583984375,-0.0012434299569576979,0.004052266012877226,-0.0007310376968234777
1772457160749816600,5.605816650390625,-0.0025654230266809464,0.005484247580170631,-0.001047421246767044
1772457160759835400,5.61583544921875,-0.002627741079777479,0.003031476167961955,-0.00014807176194153726
1772457160769853700,5.625853759765625,-0.0005179848521947861,0.003373692510649562,-0.000018109494703821838
1772457160779871500,5.63587158203125,-0.001537975505925715,0.0026527747977524996,-0.002359560690820217
1772457160789890600,5.645890625,-0.0015451660146936774,0.003885818412527442,0.001427987008355558
1772457160799908600,5.65590869140625,-0.00022530343267135322,0.003946272190660238,-0.002686330582946539
1772457160809927400,5.665927490234375,-0.0005065332516096532,0.004612861201167107,0.0014053500490263104
1772457160819945500,5.675945556640625,-0.0017656758427619934,0.003357979701831937,-0.002211222657933831
1772457160829963800,5.6859638671875,-0.0011329087428748608,0.0065772091038525105,0.00011105381418019533
1772457160839982600,5.695982666015625,-0.002061819192022085,0.005674397107213736,-0.0012948289513587952
1772457160850000600,5.706000732421875,-0.0009246495319530368,0.004679706413298845,-0.0022003035992383957
1772457160860019700,5.716019775390625,-0.0010045443195849657,0.004995557479560375,-0.0016772588714957237
1772457160870037500,5.72603759765625,-0.0013944311067461967,0.005553755909204483,-0.0014527543680742383
1772457160880055600,5.7360556640625,-0.001187503570690751,0.005505286622792482,0.001493500778451562
1772457160890074400,5.746074462890625,-0.001317998394370079,0.0046970173716545105,0.0004894890007562935
1772457160900092700,5.7560927734375,-0.0033654365688562393,0.0054762582294642925,-0.0002956108655780554
1772457160910111700,5.76611181640625,0.00008415588672505692,0.004036819562315941,-0.0007472829893231392
1772457160920129500,5.776129638671875,-0.001103880233131349,0.0054152715019881725,-0.0020189424976706505
1772457160930147600,5.786147705078125,-0.0003936151915695518,0.0054365769028663635,0.0001131843455368653
1772457160940166400,5.79616650390625,-0.0017001620726659894,0.0049039446748793125,-0.0017358483746647835
1772457160950184700,5.806184814453125,-0.0024045680183917284,0.005585714243352413,0.0026088326703757048
1772457160960203500,5.81620361328125,-0.00038722361205145717,0.0038192393258213997,0.00041625206358730793
1772457160970220500,5.826220458984375,0.001404018490575254,0.0038980687968432903,0.0008878979133442044
1772457160980238600,5.836238525390625,0.0014058827655389905,0.0027425233274698257,-0.0014751249691471457
1772457160990257400,5.84625732421875,-0.002198705682530999,0.0057497648522257805,0.0002612560929264873
1772457161000275700,5.856275634765625,-0.0016189356101676822,0.003608050523325801,0.0015401060227304697
1772457161010294800,5.866294677734375,-0.001942509668879211,0.0041643851436674595,-0.001279116258956492
1772457161020312600,5.8763125,-0.004597947467118502,0.00490287970751524,-0.0028043086640536785
1772457161030330600,5.88633056640625,0.00011345066013745964,0.004773183725774288,-0.0003182477375958115
1772457161040349400,5.896349365234375,-0.000055393749789800495,0.005182777531445026,-0.0021283982787281275
1772457161050367500,5.906367431640625,-0.002043709857389331,0.004889563657343388,0.0005821670056320727
1772457161060386600,5.916386474609375,-0.0022863238118588924,0.003316700691357255,-0.0006183860241435468
1772457161070404600,5.926404541015625,-0.0007392935222014785,0.003103115363046527,0.0018756643403321505
1772457161080423700,5.936423583984375,-0.0027020431589335203,0.004244545940309763,-0.002338521648198366
1772457161090441500,5.94644140625,-0.0011499529937282205,0.005619003437459469,-0.000740625080652535
1772457161100459500,5.95645947265625,-0.0010761833982542157,0.005409678909927607,0.0006854976527392864
1772457161110478600,5.966478515625,-0.0023228090722113848,0.005479720421135426,-0.00045327001134864986
1772457161120496400,5.976496337890625,-0.0009656621841713786,0.005672000348567963,0.0001304948964389041
1772457161130514700,5.9865146484375,-0.001710814656689763,0.00538331363350153,-0.0006700513185933232
1772457161140533800,5.99653369140625,0.0005097290268167853,0.003363838652148843,-0.0015052186790853739
1772457161150551600,6.006551513671875,-0.0021438447292894125,0.0044176517985761166,-0.0011113371001556516
1772457161160570600,6.016570556640625,-0.0016197345685213804,0.00560994865372777,-0.002644518855959177
1772457161170588400,6.02658837890625,-0.0007321029552258551,0.005310609471052885,-0.00077631144085899
1772457161180607500,6.036607421875,-0.0021281319204717875,0.0049066077917814255,0.0013843111228197813
1772457161190625800,6.046625732421875,-0.0041428133845329285,0.005256281234323978,-0.002071140334010124
1772457161200643600,6.0566435546875,-0.0006024070316925645,0.0038219024427235126,-0.0006977482116781175
1772457161210662700,6.06666259765625,-0.0016128103015944362,0.004229898564517498,-0.0019598202779889107
1772457161220680400,6.076680419921875,-0.002344380598515272,0.003579022129997611,-0.000499875342939049
1772457161230699500,6.086699462890625,-0.004682902246713638,0.005290369503200054,-0.0021313277538865805
1772457161240717600,6.096717529296875,-0.0018034926615655422,0.004224572330713272,-0.0004500742070376873
1772457161250735600,6.106735595703125,0.0010804444318637252,0.0037649108562618494,-0.00002450108149787411
1772457161260754700,6.116754638671875,-0.002382996492087841,0.003486344125121832,-0.002492984989657998
1772457161270772500,6.1267724609375,-0.0025004418566823006,0.004733502399176359,-0.0016825852217152715
1772457161280791600,6.13679150390625,-0.0025068335235118866,0.003967044875025749,-0.00034914040588773787
1772457161290809600,6.1468095703125,-0.002579005202278495,0.0029971215408295393,0.00019121496006846428
1772457161300827400,6.156827392578125,-0.003561445279046893,0.0055092815309762955,0.0002719087351579219
1772457161310846500,6.166846435546875,-0.0023787354584783316,0.003296194365248084,-0.00031558459158986807
1772457161320864800,6.17686474609375,-0.0035049861762672663,0.006566023454070091,-0.0030538467690348625
1772457161330883600,6.186883544921875,-0.003311640815809369,0.005373726598918438,0.0007629956235177815
1772457161340901600,6.196901611328125,-0.002238120650872588,0.0026940538082271814,-0.001981658162549138
1772457161350919400,6.20691943359375,-0.0017089504981413484,0.004132426809519529,-0.0014567491598427296
1772457161360938500,6.2169384765625,-0.003433613572269678,0.006454703398048878,-0.00108284130692482
1772457161370956500,6.22695654296875,-0.0014410364674404263,0.003763312939554453,-0.0011614045361056924
1772457161380975400,6.236975341796875,-0.0008194546680897474,0.004637362435460091,0.0013638047967106104
1772457161390993700,6.24699365234375,-0.0012389025650918484,0.006068012677133083,-0.0002263686910737306
1772457161401011500,6.257011474609375,-0.0013640711549669504,0.004550543148070574,-0.0008988168556243181
1772457161411030500,6.267030517578125,-0.003422162029892206,0.005662679206579924,0.0002697782183531672
1772457161421048600,6.277048583984375,-0.0024884575977921486,0.004220045171678066,0.0014378406340256333
1772457161431067400,6.2870673828125,-0.002374474424868822,0.005535380449146032,-0.0017164073651656508
1772457161441085700,6.297085693359375,-0.0018226674292236567,0.006642988882958889,-0.0005797701887786388
1772457161451103500,6.307103515625,-0.00461552431806922,0.0054703992791473866,0.000547279603779316
1772457161461122600,6.31712255859375,-0.0005060005933046341,0.003500725142657757,0.0009741843095980585
1772457161471140600,6.327140625,-0.000788561999797821,0.0032772859558463097,0.0007379619055427611
1772457161481159400,6.337159423828125,-0.002490321872755885,0.0011443602852523327,-0.001228516222909093
1772457161491177500,6.347177490234375,-0.0012833772925660014,0.004984105937182903,-0.00039468047907575965
1772457161501195800,6.35719580078125,-0.0011944277212023735,0.0057098171673715115,-0.0013901700731366873
1772457161511214600,6.367214599609375,-0.0008855010382831097,0.004215517546981573,-0.000005060006060375599
1772457161521232600,6.377232666015625,-0.002660231664776802,0.005579855293035507,-0.000059388490626588464
1772457161531251700,6.387251708984375,-0.0015989618841558695,0.0018338527297601104,-0.0012002866715192795
1772457161541269500,6.39726953125,-0.0007267766632139683,0.004926049150526524,-0.0008713863207958639
1772457161551287600,6.40728759765625,-0.0031100395135581493,0.003754258155822754,-0.0014729943359270692
1772457161561306400,6.417306396484375,-0.002897519152611494,0.0049620019271969795,0.0017528926255181432
1772457161571324700,6.42732470703125,-0.0012010856298729777,0.004723382648080587,-0.00020959076937288046
1772457161581343700,6.43734375,-0.0014612764352932572,0.0031678301747888327,-0.0026612968649715185
1772457161591361500,6.447361572265625,-0.0013755226973444223,0.0037529265973716974,-0.0011227887589484453
1772457161601379600,6.457379638671875,-0.00010972223390126601,0.004936701618134975,0.001549959764815867
1772457161611398400,6.4673984375,-0.0006958839949220419,0.005001416429877281,0.0007518103811889887
1772457161621416400,6.47741650390625,-0.0010210559703409672,0.003906857222318649,0.00025220136740244925
1772457161631435500,6.487435546875,0.0004924184759147465,0.00469595193862915,-0.0007699198904447258
1772457161641453600,6.49745361328125,0.0018160095205530524,0.004418184049427509,0.0009502158500254154
1772457161651471600,6.5074716796875,-0.0014626081101596355,0.004261590540409088,0.00015712650201749057
1772457161661490700,6.51749072265625,-0.0010924286907538772,0.005360144190490246,-0.0005073322099633515
1772457161671508500,6.527508544921875,-0.0014583469601348042,0.0059774648398160934,0.00026498452643863857
1772457161681527600,6.537527587890625,-0.0021254688035696745,0.003719104453921318,-0.0011030812747776508
1772457161691545600,6.547545654296875,-0.0024916534312069416,0.00535481795668602,-0.00029640982393175364
1772457161701563600,6.557563720703125,-0.0014471617760136724,0.004830974154174328,-0.0015251922886818647
1772457161711582700,6.567582763671875,-0.0011358382180333138,0.003907656297087669,0.00045566685730591416
1772457161721600500,6.5776005859375,0.0009241168736480176,0.004554005339741707,-0.001880191732198
1772457161731619600,6.58761962890625,-0.0022415826097130775,0.0037446708884090185,-0.0021547635551542044
1772457161741637400,6.597637451171875,-0.0009504822082817554,0.0032687638886272907,-0.0013848437229171395
1772457161751655700,6.60765576171875,-0.00036698358599096537,0.0030975225381553173,0.0004266384057700634
1772457161761674800,6.6176748046875,-0.002466353354975581,0.004671717062592506,-0.0033960631117224693
1772457161771692500,6.627692626953125,-0.0021054951939731836,0.004250671248883009,0.0012833772925660014
1772457161781711600,6.637711669921875,-0.0018519621808081865,0.006750314496457577,0.0004825647920370102
1772457161791729400,6.6477294921875,-0.0015339808305725455,0.003912449814379215,-0.0015600797487422824
1772457161801747500,6.65774755859375,0.0004945489927195013,0.003314836649224162,0.001440237509086728
1772457161811766500,6.6677666015625,0.00035739620216190815,0.005881591234356165,-0.00022077605535741895
1772457161821784600,6.67778466796875,0.0001680454588495195,0.004391818773001432,-0.0015837819082662463
1772457161831803600,6.6878037109375,0.001193096162751317,0.003483148291707039,-0.0008791094878688455
1772457161841821700,6.69782177734375,-0.0008817726047709584,0.003375822911038995,-0.0016905746888369322
1772457161851839500,6.707839599609375,-0.002293780678883195,0.004466653801500797,-0.00024314661277458072
1772457161861858600,6.717858642578125,-0.000571248063351959,0.005155347287654877,-0.0015297196805477142
1772457161871876600,6.727876708984375,-0.00202240445651114,0.004305266309529543,0.0015792545164003968
1772457161881895400,6.7378955078125,-0.0020628846250474453,0.005560413934290409,-0.00033156355493701994
1772457161891913700,6.747913818359375,-0.0018674085149541497,0.003433613572269678,-0.0007800398743711412
1772457161901931800,6.757931884765625,-0.0006585997180081904,0.004189418628811836,-0.002182993106544018
1772457161911950600,6.76795068359375,-0.002891660202294588,0.004601676017045975,-0.0022865901701152325
1772457161921968600,6.77796875,0.0014865765115246177,0.004332696553319693,-0.001564873498864472
1772457161931987700,6.78798779296875,-0.0024165522772818804,0.005397162400186062,-0.0018796591321006417
1772457161942005800,6.798005859375,-0.00019334549142513424,0.0032056469935923815,-0.002636795863509178
1772457161952024600,6.808024658203125,-0.00130947632715106,0.0023334617726504803,-0.0016056197928264737
1772457161962042600,6.818042724609375,-0.0011504855938255787,0.003254382871091366,0.0008932242053560913
1772457161972060700,6.828060791015625,-0.0005558017292059958,0.004623514134436846,-0.00036671728594228625
1772457161982079700,6.838079833984375,-0.0015872439835220575,0.004163319710642099,0.000708134553860873
1772457161992097500,6.84809765625,-0.0018399780383333564,0.006717024836689234,-0.0029316076543182135
1772457162002115800,6.85811572265625,-0.0015363775892183185,0.003072755178436637,-0.0009496832499280572
1772457162012134700,6.868134765625,-0.0014450311427935958,0.004388889297842979,0.000818123109638691
1772457162022152700,6.878152587890625,-0.0026021746452897787,0.005774265620857477,-0.0015694007743149996
1772457162032171800,6.888171875,-0.0022245384752750397,0.005181446205824614,-0.0004857605672441423
1772457162042189600,6.898189453125,-0.00024314661277458072,0.0048919604159891605,-0.0009781790431588888
1772457162052208600,6.908208740234375,-0.0026282735634595156,0.004719654098153114,0.00026258768048137426
1772457162062226400,6.918226318359375,-0.0019086875254288316,0.0023558323737233877,0.0014988270122557878
1772457162072244700,6.92824462890625,-0.0010407633380964398,0.00512791657820344,0.0003462109307292849
1772457162082263800,6.938263916015625,-0.0016972325975075364,0.003285009181126952,0.0004844290087930858
1772457162092281600,6.948281494140625,-0.0021310613956302404,0.003915379289537668,0.0006311691831797361
1772457162102300700,6.95830078125,-0.0013243899447843432,0.004690092988312244,-0.0017299894243478775
1772457162112318700,6.968318603515625,-0.0024431839119642973,0.006106894463300705,-0.0014500912511721253
1772457162122336500,6.97833642578125,-0.0012519520241767168,0.0037057886365801096,-0.0009518137667328119
1772457162132355600,6.98835546875,-0.0033510555513203144,0.003744937013834715,-0.004780906718224287
1772457162142373600,6.99837353515625,-0.000838895735796541,0.006557235028594732,0.0004964132094755769
1772457162152392700,7.008392822265625,-0.0028040423057973385,0.003953196108341217,0.0008870989549905062
1772457162162410800,7.01841064453125,-0.0007728493656031787,0.0033574472181499004,-0.002983273006975651
1772457162172428500,7.028428466796875,-0.0023012375459074974,0.0026996464002877474,0.000913197931367904
1772457162182447600,7.038447509765625,-0.0014138722326606512,0.002787530655041337,-0.0010130665032193065
1772457162192465700,7.048465576171875,-0.0006474144756793976,0.003567037871107459,-0.0010831075487658381
1772457162202484500,7.058484375,-0.001332645770162344,0.0035486621782183647,-0.0008114652009680867
1772457162212502800,7.068502685546875,-0.0004572647449094802,0.004226170480251312,-0.0020695424173027277
1772457162222520600,7.0785205078125,-0.003412308171391487,0.004208060912787914,0.0006074670236557722
1772457162232539600,7.08853955078125,-0.0006359628750942647,0.004399542231112719,0.0015952334506437182
1772457162242557700,7.0985576171875,-0.00035233621019870043,0.0017989652696996927,0.0015502260066568851
1772457162252576500,7.108576416015625,-0.0006082659820094705,0.0054632085375487804,-0.0015150723047554493
1772457162262594800,7.1185947265625,-0.001969407545402646,0.002948119305074215,-0.004217648413032293
1772457162272612600,7.128612548828125,-0.0017126789316534996,0.003707652911543846,-0.0007819040911272168
1772457162282631700,7.138631591796875,-0.002020007697865367,0.003950532991439104,-0.0009816411184147
1772457162292649700,7.148649658203125,-0.0004415521107148379,0.00458622956648469,0.0006764429272152483
1772457162302668500,7.15866845703125,-0.002270344877615571,0.0024794030468910933,0.00034168356796726584
1772457162312686600,7.1686865234375,-0.001999501371756196,0.004575843457132578,-0.001728391507640481
1772457162322704600,7.17870458984375,-0.0010048106778413057,0.002734267385676503,0.001517202821560204
1772457162332723700,7.1887236328125,0.0007837683078832924,0.0019374496769160032,0.0010921623324975371
1772457162342741800,7.19874169921875,-0.0024730113800615072,0.003209908027201891,0.0005073322099633515
1772457162352760600,7.208760498046875,-0.002356631215661764,0.00509968725964427,-0.0019374496769160032
1772457162362778600,7.218778564453125,-0.0009419600828550756,0.005687180440872908,-0.001862082164734602
1772457162372796400,7.22879638671875,-0.0010665960144251585,0.004829376470297575,0.00061279337387532
1772457162382815500,7.2388154296875,-0.0044144559651613235,0.004575843457132578,-0.0023315974976867437
1772457162392833800,7.248833740234375,-0.0015065502375364304,0.005538043566048145,0.0002263686910737306
1772457162402852600,7.2588525390625,0.0002564624010119587,0.003906324505805969,-0.000892691605258733
1772457162412870700,7.26887060546875,-0.004071973264217377,0.0043742419220507145,-0.000707868195604533
1772457162422888700,7.278888671875,-0.003311108099296689,0.0016857809387147427,-0.001961151836439967
1772457162432907500,7.288907470703125,-0.002554770326241851,0.005368399899452925,0.00019813918333966285
1772457162442925600,7.298925537109375,-0.003049053018912673,0.002011485630646348,-0.0019086875254288316
1772457162452944600,7.308944580078125,0.0014596786350011826,0.004830707795917988,-0.000984570593573153
1772457162462962700,7.318962646484375,-0.00030413299100473523,0.004159857518970966,-0.0012295814231038094
1772457162472980700,7.328980712890625,-0.0013568805297836661,0.0044200485572218895,-0.0012460930738598108
1772457162482999600,7.33899951171875,-0.00039734362508170307,0.003147589974105358,-0.0020897823851555586
1772457162493017600,7.349017578125,-0.00045673211570829153,0.002014148747548461,-0.001255946815945208
1772457162503036700,7.35903662109375,0.0002436792419757694,0.003930026665329933,-0.000026897927455138415
1772457162513054700,7.3690546875,-0.0025861957110464573,0.006629140581935644,0.0014740596525371075
1772457162523072800,7.37907275390625,-0.0009989517275243998,0.004293548408895731,-0.0006956176948733628
1772457162533091600,7.389091552734375,-0.0025925873778760433,0.0026876621413975954,0.0021931130904704332
1772457162543109600,7.399109619140625,-0.001493500778451562,0.006074670236557722,-0.003132410114631057
1772457162553128700,7.409128662109375,0.00034115093876607716,0.005589708685874939,-0.0016966998809948564
1772457162563146500,7.419146484375,-0.0010181264951825142,0.004001133143901825,-0.0006130596739239991
1772457162573164800,7.429164794921875,-0.001386441639624536,0.0044109937734901905,0.0010932276491075754
1772457162583184000,7.439183837890625,-0.002138784620910883,0.005372661165893078,-0.0008548747282475233
1772457162593201700,7.44920166015625,-0.0008980178972706199,0.005038168281316757,-0.0019313243683427572
1772457162603220700,7.459220703125,-0.0021406488958746195,0.00256382510997355,-0.0010966897243633866
1772457162613238500,7.469238525390625,-0.0007739146240055561,0.006186789367347956,0.0008551410282962024
1772457162623256600,7.479256591796875,-0.0009744506096467376,0.004012584686279297,0.00016458335448987782
1772457162633275600,7.489275634765625,-0.003165965899825096,0.004599012900143862,0.00030546457855962217
1772457162643293700,7.499293701171875,0.00041864890954457223,0.0038061898667365313,-0.0023787354584783316
1772457162653312800,7.509312744140625,-0.0005731122801080346,0.003977430984377861,-0.0021616879384964705
1772457162663330600,7.51933056640625,-0.0005113269435241818,0.0043769050389528275,-0.003665042342618108
1772457162673348600,7.5293486328125,-0.0034328147303313017,0.0029140308033674955,-0.0024077638518065214
1772457162683367700,7.53936767578125,-0.002189384773373604,0.0024620923213660717,-0.0006972155533730984
1772457162693385700,7.5493857421875,-0.0018002968281507492,0.0030341395176947117,0.0008743157959543169
1772457162703404500,7.559404541015625,-0.000012250540748937055,0.0021497036796063185,-0.0015851134667173028
1772457162713422600,7.569422607421875,-0.001972603378817439,0.0038093857001513243,-0.0003110571997240186
1772457162723440600,7.579440673828125,-0.0006708502769470215,0.004172907210886478,0.0010775149567052722
1772457162733459700,7.589459716796875,-0.0034583809319883585,0.00555189186707139,0.0008349010022357106
1772457162743477500,7.5994775390625,-0.0003866909828502685,0.002817890839651227,0.00011984224693151191
1772457162753496600,7.60949658203125,-0.0016911072889342904,0.0007629956235177815,-0.0023345269728451967
1772457162763515000,7.619514892578125,-0.0006016080733388662,0.003796602366492152,-0.000559530162718147
1772457162773532700,7.62953271484375,-0.004030694253742695,0.0027630296535789967,-0.00022370553051587194
1772457162783551700,7.6395517578125,-0.0007334345718845725,0.0028783443849533796,0.0014298511669039726
1772457162793569500,7.649569580078125,-0.0023558323737233877,0.0036719664931297302,-0.0010104032699018717
1772457162803588600,7.659588623046875,-0.0019462381023913622,0.005556419026106596,-0.00035952674807049334
1772457162813606700,7.669606689453125,0.0009009473724290729,0.0036602485924959183,0.0002031991898547858
1772457162823624700,7.679624755859375,-0.001794171635992825,0.004501541145145893,-0.0019883159548044205
1772457162833643000,7.68964306640625,-0.0008364989189431071,0.004057592246681452,-0.0003510046226438135
1772457162843661000,7.6996611328125,-0.002261290093883872,0.0038804919458925724,-0.000931041082367301
1772457162853680000,7.70968017578125,-0.0016085492679849267,0.00518837058916688,0.00046152580762282014
1772457162863698000,7.719697998046875,-0.0025827335193753242,0.0036336169578135014,-0.0015102786710485816
1772457162873716200,7.72971630859375,-0.0011640676530078053,0.003468767274171114,0.0014849785948172212
1772457162883735000,7.739735107421875,-0.001728924224153161,0.006624347064644098,-0.004818989895284176
1772457162893753000,7.749753173828125,0.0004183826094958931,0.005690642632544041,-0.0040887510403990746
1772457162903772200,7.759772216796875,-0.0007158577209338546,0.00481286458671093,0.0009294432238675654
1772457162913790000,7.7697900390625,-0.0023284016642719507,0.004197940696030855,-0.0012724583502858877
1772457162923808000,7.77980810546875,-0.002182993106544018,0.0016761935548856854,-0.002508431440219283
1772457162933826800,7.789826904296875,0.000014913702216290403,0.0028035095892846584,0.00019893812714144588
1772457162943845000,7.79984521484375,-0.000627707049716264,0.004883704707026482,0.00014168016787152737
1772457162953864200,7.8098642578125,-0.0027835359796881676,0.0034011229872703552,-0.00021891183860134333
1772457162963882000,7.819882080078125,-0.0035843485966324806,0.005344431847333908,-0.0023015039041638374
1772457162973900000,7.829900146484375,-0.0017267935909330845,0.004296477884054184,0.0016053534345701337
1772457162983919000,7.839919189453125,-0.001514806062914431,0.0016101471846923232,-0.0007065366371534765
1772457162993937000,7.84993701171875,-0.001677525113336742,0.0035473306197673082,-0.001424791174940765
1772457163003956000,7.8599560546875,-0.0011837751371785998,0.001767273643054068,-0.0011965582380071282
1772457163013974000,7.86997412109375,-0.001585912425071001,0.0031518512405455112,-0.0013760552974417806
1772457163023993000,7.8799931640625,-0.0010990865994244814,0.006780141964554787,0.0014927018200978637
1772457163034011100,7.89001123046875,-0.0018383801216259599,0.005825931206345558,-0.0018658105982467532
1772457163044029000,7.90002880859375,-0.0026253440883010626,0.005505286622792482,-0.0004551342281047255
1772457163054048000,7.910048095703125,-0.0020602215081453323,0.005530586466193199,0.0012000204296782613
1772457163064066000,7.920066162109375,-0.0020186761394143105,0.006053098943084478,-0.0000023968450477696024
1772457163074085000,7.930085205078125,-0.0014807175612077117,0.0038626487366855145,-0.00108257494866848
1772457163084103200,7.940103271484375,-0.001885784324258566,0.005991047248244286,-0.003926298581063747
1772457163094121000,7.950120849609375,-0.0008343683439306915,0.006105563137680292,-0.002683134749531746
1772457163104140000,7.96014013671875,-0.0021401161793619394,0.00455826660618186,0.0008948221220634878
1772457163114157800,7.97015771484375,-0.00006684534309897572,0.0035004590172320604,-0.0016045545926317573
1772457163124177000,7.980177001953125,-0.0010727213229984045,0.0032144354190677404,-0.0008364989189431071
1772457163134195200,7.9901953125,-0.0032317459117621183,0.00424401368945837,0.0004492752777878195
1772457163144213000,8.000212890625,-0.0026871294248849154,0.004289819858968258,-0.0020692760590463877
1772457163154232000,8.010232177734375,-0.0024461133871227503,0.004477838985621929,0.0012013519881293178
1772457163164250000,8.02025,-0.004773982334882021,0.003748931922018528,-0.0011446266435086727
1772457163174269000,8.03026904296875,-0.0036333505995571613,0.002898318227380514,-0.0003480751474853605
1772457163184287000,8.040286865234375,0.0008349010022357106,0.004793157335370779,0.0016266588354483247
1772457163194305000,8.050304931640625,-0.0028474517166614532,0.004316185135394335,-0.0009867012267932296
1772457163204324000,8.060323974609375,-0.0015044197207316756,0.004274107050150633,-0.0002878876985050738
1772457163214342100,8.070342041015625,-0.000544350128620863,0.0046815709210932255,0.0007699198904447258
1772457163224361000,8.08036083984375,-0.0013986921403557062,0.005811816547065973,-0.00022370553051587194
1772457163234379000,8.09037890625,-0.0016189356101676822,0.005169195588678122,-0.0014141384745016694
1772457163244396800,8.100396728515625,-0.002320145955309272,0.005531119182705879,0.000984836951829493
1772457163254416000,8.110415771484375,-0.0019465044606477022,0.0036666402593255043,-0.0016919062472879887
1772457163264434200,8.12043408203125,-0.002370745874941349,0.003742273896932602,-0.0009595369338057935
1772457163274453000,8.130452880859375,-0.0016114787431433797,0.0049127331003546715,-0.001088433898985386
1772457163284471000,8.140470947265625,0.0001781654718797654,0.003817375050857663,0.0002721750643104315
1772457163294488800,8.15048876953125,-0.0016695356462150812,0.003674097126349807,-0.001377919572405517
1772457163304508000,8.1605078125,0.0009614011505618691,0.0020722055342048407,-0.004767591133713722
1772457163314526200,8.170526123046875,-0.0009531453251838684,0.004482898861169815,-0.0015547533985227346
1772457163324545000,8.180544921875,-0.002657302189618349,0.0037180392537266016,-0.0018959043081849813
1772457163334563000,8.19056298828125,0.0007235808880068362,0.002755040070042014,0.0011739213950932026
1772457163344581000,8.2005810546875,0.00035659727291204035,0.004512726329267025,0.0003462109307292849
1772457163354600000,8.210599853515625,-0.0008889631717465818,0.0048946235328912735,0.00032330775866284966
1772457163364618000,8.220617919921875,-0.002575543010607362,0.0054357778280973434,-0.00037151097785681486
1772457163374637000,8.230636962890625,-0.0010908307740464807,0.006615025922656059,-0.0007174555794335902
1772457163384655000,8.240655029296875,-0.001954760169610381,0.005071191117167473,-0.0015515576815232635
1772457163394673200,8.250673095703124,0.00005352953667170368,0.0046876962296664715,-0.0010407633380964398
1772457163404692000,8.26069189453125,-0.001330249011516571,0.002171541564166546,-0.0003608583356253803
1772457163414710000,8.2707099609375,0.0003557983145583421,0.005113801918923855,0.00021784658019896597
1772457163424729000,8.28072900390625,-0.0035862126387655735,0.004298341926187277,-0.0009068063227459788
1772457163434747000,8.290746826171874,-0.0028988507110625505,0.006419816054403782,0.000075101139373146
1772457163444765200,8.30076513671875,0.0011033476330339909,0.002802977105602622,0.00046578687033616006
1772457163454784000,8.310783935546874,-0.0029619678389281034,0.003802461316809058,0.0006615291931666434
1772457163464802000,8.320802001953124,-0.002242914168164134,0.004911401774734259,-0.00072597770486027
1772457163474821000,8.330821044921874,-0.004798217210918665,0.005173456855118275,-0.0034144388046115637
1772457163484839000,8.3408388671875,-0.002776345470920205,0.0037444045301526785,-0.0005842975224368274
1772457163494857000,8.35085693359375,-0.0034072482958436012,0.00503976596519351,-0.002329200739040971
1772457163504876000,8.3608759765625,-0.0033132387325167656,0.004487160127609968,0.0010788465151563287
1772457163514894000,8.37089404296875,-0.001044758129864931,0.0027081684675067663,-0.0004242415598127991
1772457163524913200,8.3809130859375,-0.00133903743699193,0.006645385641604662,-0.0015065502375364304
1772457163534931000,8.390930908203124,-0.0028357338160276413,0.006042978726327419,-0.0024586303625255823
1772457163544949000,8.400948974609374,-0.000934236915782094,0.004976116586476564,-0.0025129588320851326
1772457163554968000,8.410968017578124,-0.0004777711001224816,0.0026583673898130655,0.0004463458026293665
1772457163564986000,8.420986083984374,-0.0029172266367822886,0.0037465349305421114,0.0005334311863407493
1772457163575005000,8.4310048828125,-0.002502306131646037,0.006105296779423952,-0.0033281524665653706
1772457163585023000,8.44102294921875,-0.0010801780736073852,0.005636846646666527,-0.001987517112866044
1772457163595041000,8.451041015625,-0.0007257114048115909,0.006341252941638231,-0.0013305152533575892
1772457163605060000,8.46106005859375,-0.0009001484140753746,0.004756405483931303,-0.0004346278728917241
1772457163615078000,8.471077880859376,-0.00001864212754298933,0.00347462622448802,0.0018365158466622233
1772457163625097000,8.481096923828124,-0.001612277701497078,0.005757221486419439,-0.0002932140196207911
1772457163635115000,8.491114990234376,0.0006016080733388662,0.005316468421369791,0.0009888317435979843
1772457163645133000,8.501133056640626,-0.0018282600212842226,0.005062935408204794,0.00005752427750849165
1772457163655152000,8.511152099609374,-0.0006383596919476986,0.005591306835412979,-0.0008705873624421656
1772457163665170000,8.521169921875,-0.002567020943388343,0.004352670628577471,0.0015765913994982839
1772457163675189000,8.53118896484375,-0.0007486145477741957,0.002409628126770258,-0.00046152580762282014
1772457163685207000,8.54120703125,-0.0010138654615730047,0.005308479070663452,-0.002070873975753784
1772457163695225000,8.55122509765625,0.000107858024421148,0.005762547720223665,0.0006490123341791332
1772457163705244200,8.561244140625,0.0003755057114176452,0.004847751930356026,-0.0007741809240542352
1772457163715262000,8.571261962890626,-0.0010695254895836115,0.0008886968716979027,-0.0007225155713967979
1772457163725281000,8.581281005859376,-0.002129996195435524,0.004807005636394024,-0.0010498181218281388
1772457163735299000,8.591299072265626,-0.0024684839881956577,0.0057007623836398125,-0.0007302387384697795
1772457163745316900,8.60131689453125,-0.0006106628570705652,0.002862365450710058,-0.0013044163351878524
1772457163755336000,8.6113359375,0.0015334481140598655,0.005592371802777052,-0.0037233654875308275
1772457163765354000,8.62135400390625,-0.0021382521372288465,0.005270395893603563,-0.0011896340874955058
1772457163775373000,8.631373046875,-0.002033855998888612,0.004978513345122337,-0.0015595471486449242
1772457163785391000,8.64139111328125,-0.0015150723047554493,0.004248274490237236,0.0013960290234535933
1772457163795409000,8.651408935546876,-0.002513491315767169,0.0051878378726542,-0.0006402239087037742
1772457163805428000,8.661427978515626,0.0013164004776626825,0.004362790379673243,-0.0009440905996598303
1772457163815446000,8.671446044921876,-0.0020093549974262714,0.006041114684194326,-0.0015744607662782073
1772457163825465000,8.681465087890626,-0.0028162929229438305,0.003861849894747138,-0.001960885478183627
1772457163835484000,8.69148388671875,-0.0030506509356200695,0.0037894118577241898,-0.0002133192028850317
1772457163845501700,8.701501708984376,-0.0010000169277191162,0.0031411985401064157,-0.001600559800863266
1772457163855520800,8.711520751953126,-0.0010628675809130073,0.004348409362137318,-0.001115864492021501
1772457163865538600,8.72153857421875,-0.0021377194207161665,0.004145476501435041,0.0015840481501072645
1772457163875557600,8.7315576171875,-0.0009693906176835299,0.003961718175560236,-0.00013448962999973446
1772457163885575700,8.74157568359375,-0.0016642092959955335,0.001805623178370297,0.001427720650099218
1772457163895593700,8.75159375,-0.0009859022684395313,0.004444549325853586,0.0005728459218516946
1772457163905612800,8.76161279296875,-0.0015672702575102448,0.003683151677250862,0.0012895026011392474
1772457163915630600,8.771630615234375,-0.0019086875254288316,0.0028367992490530014,-0.0014948323369026184
1772457163925649700,8.781649658203126,-0.002365952357649803,0.004510329570621252,-0.0003067961661145091
1772457163935667700,8.791667724609376,-0.0004324973560869694,0.0029262814205139875,-0.001936384360305965
1772457163945685500,8.801685546875,-0.002121740486472845,0.0036916739773005247,0.0004977448261342943
1772457163955704600,8.81170458984375,-0.0014405038673430681,0.005289304070174694,-0.00028389296494424343
1772457163965723000,8.821722900390625,-0.00020586235041264445,0.004010987002402544,-0.0012876383261755109
1772457163975741700,8.83174169921875,-0.00040613205055706203,0.00376011710613966,-0.00032623723382130265
1772457163985759700,8.841759765625,-0.0020189424976706505,0.0043798345141112804,-0.0014559502014890313
1772457163995777500,8.851777587890625,-0.0028748824261128902,0.0036709012929350138,-0.0017787253018468618
1772457164005796600,8.861796630859375,-0.002094842493534088,0.006074936594814062,-0.0013587448047474027
1772457164015814700,8.871814697265625,-0.003156644757837057,0.004519917070865631,-0.0007491472060792148
1772457164025833700,8.881833740234375,-0.0029111013282090425,0.003052781568840146,-0.003454386256635189
1772457164035851800,8.891851806640625,-0.0026160231791436672,0.0051715923473238945,-0.000862864195369184
1772457164045869600,8.90186962890625,-0.00001864212754298933,0.004138818476349115,-0.0010335728293284774
1772457164055888600,8.911888671875,-0.002141980454325676,0.004983839578926563,0.00039281626231968403
1772457164065906700,8.92190673828125,-0.0028091021813452244,0.0047849016264081,-0.0025156219489872456
1772457164075925500,8.931925537109375,-0.00304718897677958,0.004752943757921457,-0.0007574030314572155
1772457164085943800,8.94194384765625,-0.0015590144321322441,0.0030101709999144077,-0.00007829693640815094
1772457164095961900,8.9519619140625,-0.002543052425608039,0.004173705819994211,0.0000029294772048160667
1772457164105980700,8.961980712890625,-0.0017486315919086337,0.006222475785762072,-0.0004090615548193455
1772457164115998700,8.971998779296875,-0.0012093414552509785,0.0016226640436798334,0.0016466324450448155
1772457164126017800,8.982017822265625,-0.001547030289657414,0.003991812001913786,-0.00006311691686278209
1772457164136035600,8.99203564453125,-0.0023872575256973505,0.003783819265663624,-0.0026322684716433287
1772457164146054000,9.002053955078125,-0.0012841762509196997,0.006371346767991781,-0.001580319833010435
1772457164156072700,9.01207275390625,-0.001814411603845656,0.0034325483720749617,0.0010120011866092682
1772457164166090800,9.0220908203125,-0.0017920411191880703,0.004702077247202396,-0.002980876248329878
1772457164176109800,9.03210986328125,-0.00256435782648623,0.0033784860279411077,0.000036751622246811166
1772457164186127600,9.042127685546875,0.00028069718973711133,0.004089017398655415,-0.0001310275256400928
1772457164196145700,9.052145751953125,-0.0010628675809130073,0.002776611829176545,0.0003126551164314151
1772457164206164500,9.06216455078125,-0.0030362699180841446,0.005498095881193876,-0.00022370553051587194
1772457164216182800,9.072182861328125,-0.0036796897184103727,0.003358778776600957,0.00013156015484128147
1772457164226201900,9.082201904296875,-0.001589108258485794,0.005302353762090206,-0.0010061422362923622
1772457164236219600,9.0922197265625,-0.002028796123340726,0.003472229465842247,-0.0013321131700649858
1772457164246237700,9.10223779296875,-0.0034530546981841326,0.006076268386095762,-0.0031531827989965677
1772457164256256500,9.112256591796875,-0.0022711437195539474,0.0038685076870024204,-0.0009622001089155674
1772457164266274800,9.12227490234375,-0.001207743538543582,0.005129780620336533,-0.00023515711654908955
1772457164276293600,9.132293701171875,-0.0005986785981804132,0.0036019254475831985,-0.001166198286227882
1772457164286311700,9.142311767578125,-0.0005515406373888254,0.004441619850695133,0.00017310546536464244
1772457164296329700,9.152329833984375,-0.002543318783864379,0.003959321416914463,-0.0008463526028208435
1772457164306348800,9.162348876953125,0.0013683321885764599,0.004667189903557301,0.0004673847579397261
1772457164316366600,9.17236669921875,-0.0036770266015082598,0.0036719664931297302,-0.002001631772145629
1772457164326385700,9.1823857421875,0.0010271812789142132,0.003117230022326112,0.0013233247445896268
1772457164336403700,9.19240380859375,-0.0008748483960516751,0.004292216617614031,-0.0025161546654999256
1772457164346421800,9.202421875,-0.0014879080699756742,0.004244812298566103,-0.0015571502735838294
1772457164356440800,9.21244091796875,0.00002663161103555467,0.006622216198593378,-0.002046639332547784
1772457164366458600,9.222458740234375,-0.0020634171087294817,0.002897519152611494,-0.0011041465913876891
1772457164376477700,9.232477783203125,-0.0010932276491075754,0.004346545320004225,0.0001531317684566602
1772457164386495500,9.24249560546875,0.0016053534345701337,0.0035401401109993458,0.0006585997180081904
1772457164396513800,9.252513671875,-0.0006173207075335085,0.005075452383607626,-0.0012985573848709464
1772457164406532900,9.262532958984375,-0.001249555149115622,0.0024679512716829777,0.0000015978966985130683
1772457164416550700,9.272550537109375,-0.0004727110790554434,0.003722300287336111,0.0009374326909892261
1772457164426569700,9.28256982421875,0.0014711301773786545,0.003254915354773402,-0.0009395632077939808
1772457164436587800,9.292587890625,-0.0033547841012477875,0.003947603516280651,-0.002435993403196335
1772457164446606600,9.302606689453125,-0.0013917679898440838,0.003427754621952772,0.00007962851668708026
1772457164456624600,9.312624755859375,-0.0008852347382344306,0.005417935084551573,-0.00015286543930415064
1772457164466642700,9.322642578125,-0.0011523497523739934,0.004628307651728392,-0.0014197311829775572
1772457164476661800,9.332661865234375,0.00010626012954162434,0.007283213082700968,0.001160339335910976
1772457164486679800,9.3426796875,-0.0011374361347407103,0.004544684197753668,-0.0015880429418757558
1772457164496698600,9.35269873046875,-0.00039281626231968403,0.0019592875614762306,-0.00023702133330516517
1772457164506716700,9.362716552734375,-0.0006857639527879655,0.0017014936311170459,-0.0008527441532351077
1772457164516734700,9.372734619140624,-0.0009824400767683983,0.003769171889871359,0.002681004349142313
1772457164526753800,9.38275390625,-0.00045619948650710285,0.004800081718713045,-0.0009970874525606632
1772457164536771800,9.392771728515624,-0.0013606089632958174,0.0051739891059696674,-0.0019981698133051395
1772457164546790700,9.402790771484375,-0.002766757970675826,0.00567066902294755,-0.0011563445441424847
1772457164556808700,9.41280859375,-0.0023824640084058046,0.0018500980222597718,0.0020487697329372168
1772457164566826500,9.422826416015624,-0.0008122641011141241,0.004163053352385759,0.00034594463068060577
1772457164576845600,9.432845458984374,-0.0026501116808503866,0.002715891692787409,0.0012591425329446793
1772457164586863900,9.44286376953125,0.0002844255941454321,0.0024951156228780746,0.00145222176797688
1772457164596882700,9.452882568359374,-0.0019062906503677368,0.004738828632980585,-0.00020426444825716317
1772457164606900700,9.462900634765624,-0.0005078648100607097,0.004078631289303303,0.0003249056462664157
1772457164616918800,9.472918701171874,-0.0016157397767528892,0.0041127195581793785,-0.0011406318517401814
1772457164626937600,9.4829375,0.001442900625988841,0.0037462685722857714,-0.0015795208746567369
1772457164636955600,9.49295556640625,-0.0007949535502120852,0.004122839774936438,-0.0017944378778338432
1772457164646974700,9.502974609375,-0.0024173513520509005,0.0030216225422918797,-0.0010295780375599861
1772457164656992800,9.51299267578125,-0.004540689755231142,0.005446963477879763,-0.0026354643050581217
1772457164667010800,9.5230107421875,-0.002183259464800358,0.003439472522586584,-0.0017014936311170459
1772457164677029600,9.533029541015624,-0.0007576693315058947,0.0019632822368294,0.0008122641011141241
1772457164687047700,9.543047607421874,-0.0034149715211242437,0.007239803206175566,0.002659698948264122
1772457164697066800,9.553066650390624,-0.0014721954939886928,0.003961984533816576,-0.0003475425182841718
1772457164707084500,9.56308447265625,-0.0026264095213264227,0.005653624422848225,0.0005233111442066729
1772457164717102800,9.573102783203124,-0.0021760689560323954,0.0017334514996036887,-0.0003296993381809443
1772457164727121700,9.58312158203125,-0.0016708672046661377,0.0060147494077682495,-0.0019174759509041905
1772457164737139700,9.5931396484375,-0.002162220422178507,0.00518810423091054,-0.001275920425541699
1772457164747158800,9.60315869140625,-0.0013195963110774755,0.003914846573024988,-0.0013622068800032139
1772457164757176600,9.613176513671876,-0.0016727314796298742,0.004945223685353994,-0.00020240024605300277
1772457164767194600,9.623194580078126,-0.0005789712304249406,0.003970507066696882,0.0022767363116145134
1772457164777213700,9.633213623046874,-0.001085504423826933,0.0006178533658385277,-0.001112668658606708
1772457164787231700,9.643231689453126,-0.003126551164314151,0.004355600103735924,-0.0029553098138421774
1772457164797250800,9.653250732421874,-0.0035119105596095324,0.0049164616502821445,0.000523577444255352
1772457164807268600,9.6632685546875,-0.00318886898458004,0.0016144082183018327,-0.0007938882918097079
1772457164817286700,9.67328662109375,-0.0016381103778257966,0.0036903421860188246,0.0001603222917765379
1772457164827305700,9.6833056640625,-0.0005797701887786388,0.0035425368696451187,-0.002514556748792529
1772457164837323000,9.693322998046876,-0.0009190568816848099,0.0031491878908127546,-0.0015989618841558695
1772457164847342000,9.703342041015626,-0.0025949841365218163,0.002628007438033819,0.0035121769178658724
1772457164857360000,9.71335986328125,-0.002838130807504058,0.00430207047611475,0.0014586133183911443
1772457164867378000,9.7233779296875,0.0002561961009632796,0.004905276466161013,0.0001001348573481664
1772457164877397000,9.73339697265625,-0.0019001654582098126,0.0020540961995720863,0.00043542683124542236
1772457164887415000,9.7434150390625,-0.0032346753869205713,0.004509530495852232,-0.0007131945458240807
1772457164897434000,9.75343408203125,-0.003162503708153963,0.005527923349291086,-0.0008394283941015601
1772457164907452000,9.763451904296875,-0.0023989754263311625,0.004707936197519302,0.00010146643762709573
1772457164917470000,9.773469970703125,-0.0017784589435905218,0.002089249901473522,0.0008567389450035989
1772457164927489000,9.783489013671876,-0.0017936390358954668,0.004734834190458059,-0.00038828887045383453
1772457164937506800,9.7935068359375,-0.000568318588193506,0.006735400762408972,-0.0019656792283058167
1772457164947526000,9.80352587890625,-0.0001675128296483308,0.0042706448584795,0.00004021373388241045
1772457164957544000,9.8135439453125,-0.0046730488538742065,0.004352936986833811,-0.0017840516520664096
1772457164967562000,9.82356201171875,-0.000937166390940547,0.006402505561709404,-0.0007629956235177815
1772457164977581000,9.8335810546875,-0.0023182816803455353,0.00273133791051805,0.0026644926983863115
1772457164987598800,9.843598876953125,-0.003719370812177658,0.004620051942765713,-0.0010359697043895721
1772457164997618000,9.853617919921875,-0.003463174682110548,0.0027715517207980156,0.0003944141499232501
1772457165007635700,9.8636357421875,-0.0010982876410707831,0.002341717481613159,-0.0009827064350247383
1772457165017654000,9.873654052734375,-0.0005573995877057314,0.004854676313698292,-0.001133441342972219
1772457165027673000,9.883673095703125,-0.0023289343807846308,0.004554271697998047,-0.0014500912511721253
1772457165037691000,9.89369091796875,-0.0021851237397640944,0.003849599277600646,0.002484196564182639
1772457165047710000,9.9037099609375,-0.005490372888743877,0.003829625668004155,-0.00126739835832268
1772457165057728000,9.91372802734375,-0.0005494101205840707,0.0052173989824950695,-0.0020064255222678185
1772457165067746000,9.92374609375,-0.0023156185634434223,0.0059987702406942844,0.0004146541759837419
1772457165077764900,9.933764892578125,-0.00065460498444736,0.0016226640436798334,-0.00035260253935121
1772457165087783000,9.943782958984375,-0.00290444353595376,0.003891411004588008,-0.00013635384675581008
1772457165097802000,9.953802001953125,-0.002576608443632722,0.004722317215055227,0.0013052152935415506
1772457165107820000,9.963820068359375,-0.0034077810123562813,0.007774566300213337,-0.0014761901693418622
1772457165117837800,9.973837890625,-0.0005201153689995408,0.004067711997777224,-0.0020178770646452904
1772457165127857000,9.98385693359375,-0.002029328839853406,0.004606469534337521,-0.0001424791116733104
1772457165137875000,9.993875,-0.004194212146103382,0.0034416031558066607,-0.0015986956423148513
1772457165147894000,10.00389404296875,-0.003612045431509614,0.0059993029572069645,-0.0023427826818078756
1772457165157912000,10.013912109375,0.00007536746124969795,0.004373443312942982,-0.0012120045721530914
1772457165167929900,10.023929931640625,0.0012389025650918484,0.002067678142338991,0.0014956312952563167
1772457165177949000,10.033948974609375,-0.0023193468805402517,0.004743622615933418,-0.0007664577569812536
1772457165187966700,10.043966796875,0.000004261057711119065,0.004494084510952234,-0.0011829761788249016
1772457165197985800,10.05398583984375,-0.0010269149206578732,0.006028597708791494,-0.0009166600648313761
1772457165208004000,10.064004150390625,-0.0008892294717952609,0.00446958327665925,0.0009182579233311117
1772457165218022000,10.07402197265625,-0.0017595505341887474,0.00299286050722003,0.00020905814017169178
1772457165228041000,10.084041015625,0.002049835165962577,0.003713245503604412,-0.00024314661277458072
1772457165238059000,10.09405908203125,0.0012010856298729777,0.004643221385776997,0.0005182511522434652
1772457165248077800,10.104077880859375,-0.0008870989549905062,0.003153448924422264,0.000565389113035053
1772457165258095900,10.114095947265625,-0.0020751350093632936,0.0038219024427235126,0.00039468047907575965
1772457165268114000,10.124114013671875,-0.0007422229973599315,0.0008167914929799736,-0.0024642229545861483
1772457165278133000,10.134133056640625,0.0012966931099072099,0.001002413802780211,-0.000969656917732209
1772457165288151000,10.144151123046875,0.000017310547264060006,0.002968092914670706,0.002369148191064596
1772457165298169900,10.154169921875,-0.001044758129864931,0.0030208237003535032,-0.001979261403903365
1772457165308189000,10.16418896484375,0.0003225088003091514,0.0030711572617292404,0.0004367584188003093
1772457165318207000,10.17420703125,-0.003177683800458908,0.0018932411912828684,-0.000672448193654418
1772457165328225000,10.18422509765625,-0.00042504051816649735,0.0009078715811483562,0.0023310647811740637
1772457165338243800,10.194243896484375,-0.0005459480453282595,0.004070641472935677,0.00039281626231968403
1772457165348262000,10.204261962890625,-0.0003150519623886794,0.004248807206749916,-0.0006207828409969807
1772457165358281000,10.214281005859375,-0.0012383698485791683,0.005291700828820467,-0.0002442118711769581
1772457165368299000,10.224299072265625,-0.00048389637959189713,0.0041305627673864365,0.00042211104300804436
1772457165378316800,10.23431689453125,-0.0015875103417783976,0.005058674607425928,-0.0015504923649132252
1772457165388335900,10.2443359375,0.0000351537273672875,0.0032024511601775885,0.0003147856332361698
1772457165398354200,10.254354248046875,-0.0023995081428438425,0.005646434146910906,-0.0004945489927195013
1772457165408373000,10.264373046875,0.0004876247840002179,0.005958823021501303,0.00027057717670686543
1772457165418391000,10.27439111328125,0.00005166532355360687,0.0036575854755938053,-0.0006024070316925645
1772457165428408800,10.284408935546875,-0.0012058793799951673,0.004072772338986397,0.0003384877636563033
1772457165438428000,10.294427978515625,-0.0009859022684395313,0.00634977500885725,-0.0003099919413216412
1772457165448446000,10.304446044921875,-0.0007150587625801563,0.002272741636261344,-0.0009334379574283957
1772457165458464800,10.31446484375,-0.0015651397407054901,0.005789179354906082,0.00014647385978605598
1772457165468483000,10.324483154296875,-0.00007590009045088664,0.004540157038718462,0.001157143502496183
1772457165478500900,10.3345009765625,-0.002189651131629944,0.0032985913567245007,-0.0008647284121252596
1772457165488520000,10.34452001953125,-0.0011448930017650127,0.004905809182673693,0.0001371527905575931
1772457165498538000,10.3545380859375,-0.002829608740285039,0.005544435232877731,0.0008338357438333333
1772457165508556800,10.364556884765625,-0.002627474721521139,0.0010151970200240612,0.00015712650201749057
1772457165518574800,10.374574951171875,-0.0006431533838622272,0.002269279444590211,-0.00101173494476825
1772457165528593000,10.384593017578124,-0.0021606225054711103,0.0022415826097130775,-0.00047351003740914166
1772457165538612000,10.394612060546875,-0.0032200280111283064,0.004298608284443617,-0.0002985403698403388
1772457165548630000,10.404630126953125,-0.0021731394808739424,0.004147873260080814,-0.00040293627534992993
1772457165558648800,10.41464892578125,-0.0006285060080699623,0.003087136195972562,0.0007880293414928019
1772457165568667000,10.4246669921875,-0.003306314582005143,0.0023904533591121435,0.001493500778451562
1772457165578685000,10.434684814453124,-0.0011954930378124118,0.0044410875998437405,-0.00005858954318682663
1772457165588703700,10.444703857421874,-0.002058357233181596,0.004428037907928228,-0.00012357067316770554
1772457165598722000,10.45472216796875,-0.0014713965356349945,0.000957939017098397,0.003427488263696432
1772457165608741000,10.4647412109375,-0.0011675298446789384,0.0028610338922590017,-0.00014620754518546164
1772457165618759000,10.474759033203124,-0.002034388715401292,0.0043718451634049416,-0.002999251941218972
1772457165628777000,10.48477685546875,-0.002228266792371869,0.004788363818079233,0.0000351537273672875
1772457165638795800,10.494795654296874,-0.0013606089632958174,0.007622233126312494,-0.0025984463281929493
1772457165648814000,10.50481396484375,-0.0007190534961409867,0.0036634444259107113,0.001282045734114945
1772457165658833200,10.514833251953124,-0.002231728984043002,0.004543619230389595,-0.0001954760227818042
1772457165668851000,10.524850830078124,-0.00040533312130719423,0.004051200579851866,0.0003091930120717734
1772457165678869000,10.534868896484374,-0.0027116306591778994,0.006169212516397238,-0.001023452845402062
1772457165688887800,10.5448876953125,-0.004006193019449711,0.005499427672475576,-0.00045060686534270644
1772457165698905900,10.55490576171875,-0.0024676851462572813,0.006021939683705568,-0.0021901836153119802
1772457165708925000,10.564925048828124,-0.0009070726810023189,0.004985437728464603,-0.0005046690348535776
1772457165718943000,10.57494287109375,-0.003281546989455819,0.003934287931770086,-0.001109739183448255
1772457165728961000,10.5849609375,-0.0015219965716823936,0.004688494838774204,-0.0005137237603776157
1772457165738980000,10.59497998046875,-0.0015611450653523207,0.004037085920572281,0.000258859246969223
1772457165748998000,10.604997802734376,-0.0013086773687973619,0.004218447022140026,0.001047154888510704
1772457165759017000,10.615016845703124,-0.0007840346079319715,0.0034493261482566595,-0.002326004905626178
1772457165769034800,10.62503466796875,-0.0009438242996111512,0.004197940696030855,-0.0007640608819201589
1772457165779053000,10.635052978515626,-0.0034016557037830353,0.005510879214853048,0.0017893778858706355
1772457165789072100,10.645072021484374,-0.002403502818197012,0.0027366643771529198,-0.0003249056462664157
1772457165799090000,10.65508984375,-0.002629871480166912,0.0028538433834910393,0.0011142665753141046
1772457165809109000,10.66510888671875,-0.002016545506194234,0.0068238177336752415,0.00025832661776803434
1772457165819126800,10.675126708984376,-0.00023755396250635386,0.0008351673022843897,0.0035657063126564026
1772457165829144800,10.685144775390626,-0.0015600797487422824,0.004688494838774204,-0.0001877528557088226
1772457165839164000,10.695163818359376,-0.0016919062472879887,0.0028905950020998716,-0.0013046825770288706
1772457165849182000,10.705181884765626,-0.0007060039788484573,0.00264744833111763,-0.0010159959783777595
1772457165859201000,10.715200927734376,0.0006530070677399635,0.0030711572617292404,0.0008412926108576357
1772457165869218800,10.72521875,-0.00152332813013345,0.003409378696233034,-0.0008125304593704641
1772457165879236900,10.73523681640625,-0.002403236459940672,0.0057404437102377415,-0.0016439693281427026
1772457165889256000,10.745255859375,0.00001864212754298933,0.0037377465050667524,0.001463406952098012
1772457165899274000,10.75527392578125,-0.00008309062832267955,0.004032026045024395,-0.0033960631117224693
1772457165909293000,10.76529296875,-0.00038269624928943813,0.004789428785443306,-0.0017305220244452357
1772457165919310800,10.775310791015626,0.00035926041891798377,0.004544151946902275,-0.0009339706157334149
1772457165929329000,10.785328857421876,-0.0019736685790121555,0.003667971817776561,0.00017257283616345376
1772457165939348000,10.795347900390626,-0.002156361471861601,0.0029561088886111975,-0.0035350800026208162
1772457165949365800,10.80536572265625,-0.003710582386702299,0.006716492120176554,-0.0022450448013842106
1772457165959384800,10.815384765625,-0.001981391804292798,0.005742840468883514,-0.0005512743373401463
1772457165969403000,10.82540283203125,-0.0005398227367550135,0.0054142065346241,-0.0024892566725611687
1772457165979421000,10.8354208984375,0.00033156355493701994,0.006109291687607765,-0.002570749493315816
1772457165989440000,10.84543994140625,-0.0007845672662369907,0.0038575888611376286,-0.0011004181578755379
1772457165999457800,10.855457763671875,-0.0014237258583307266,0.00469595193862915,0.002799248555675149
1772457166009476900,10.865476806640626,0.00046365635353140533,0.004531901329755783,-0.0015185344964265823
1772457166019495000,10.875494873046875,-0.0011094729416072369,0.0032139027025550604,0.000657534459605813
1772457166029513700,10.885513671875,0.0019214707426726818,0.000743554555810988,0.0021291973534971476
1772457166039532000,10.895531982421875,-0.001740375766530633,0.0029470541048794985,-0.001913481275551021
1772457166049549800,10.9055498046875,0.0000031957933970261365,0.003959854133427143,-0.0003736414946615696
1772457166059569000,10.91556884765625,-0.0016429040115326643,0.005057875532656908,0.002614957746118307
1772457166069587000,10.9255869140625,0.00017310546536464244,0.003973170183598995,0.0011182613670825958
1772457166079605000,10.93560498046875,0.0003499393642414361,0.004355067387223244,0.0005145227187313139
1772457166089623800,10.945623779296875,-0.001880191732198,0.004150536376982927,-0.0006884271278977394
1772457166099641900,10.955641845703125,0.00034647725988179445,0.004454935900866985,-0.0013068130938336253
1772457166109661000,10.965660888671875,-0.0017028251895681024,0.0052384380251169205,0.0014450311427935958
1772457166119679000,10.975678955078125,-0.0005941512063145638,0.004123372491449118,-0.00009960222087102011
1772457166129697800,10.98569775390625,-0.0018018947448581457,0.004116980824619532,-0.0013456953456625342
1772457166139715800,10.9957158203125,-0.0014306501252576709,0.004001399502158165,-0.00017310546536464244
1772457166149734000,11.00573388671875,-0.0012839100090786815,0.0028035095892846584,0.0001675128296483308
1772457166159753000,11.0157529296875,-0.0034296188969165087,0.0068174260668456554,-0.0027196200098842382
1772457166169771000,11.02577099609375,-0.00088976213010028,0.0016556872287765145,-0.0023060310631990433
1772457166179788800,11.035788818359375,0.0001555285998620093,0.004487959202378988,-0.000493750034365803
1772457166189807900,11.045807861328125,-0.0022775353863835335,0.004111388232558966,0.0002897519152611494
1772457166199826000,11.055825927734375,-0.00035926041891798377,0.005022189114242792,0.00047936898772604764
1772457166209844700,11.0658447265625,-0.0008641957538202405,0.004437625408172607,-0.00011851066665258259
1772457166219863000,11.075863037109375,-0.0018351842882111669,0.004546815063804388,-0.00032676986302249134
1772457166229882000,11.085882080078125,-0.0020628846250474453,0.004247209057211876,-0.0004348942020442337
1772457166239900000,11.09589990234375,-0.002298840554431081,0.00034354778472334146,-0.0034290861804038286
1772457166249918000,11.10591796875,-0.0016644756542518735,0.00836525484919548,0.03214302286505699
1772457166259936800,11.115936767578125,-0.0021470405627042055,0.006539391819387674,0.03801902011036873
1772457166269954800,11.125954833984375,0.000018375811123405583,0.0002324939559912309,-0.04772784188389778
1772457166279974000,11.135973876953125,-0.0001411475386703387,0.005228317808359861,-0.05768966302275658
1772457166289992000,11.145991943359375,0.0013928331900388002,0.004110589157789946,0.02702176384627819
1772457166300010000,11.156010009765625,-0.0020216056145727634,0.004275971557945013,0.036735378205776215
1772457166310028800,11.16602880859375,-0.0001358212175546214,0.0031470574904233217,-0.02466859482228756
