time,seconds_elapsed,z,y,x
1772457155228422700,0.084422607421875,0.0009085284546017647,-0.0011342812795192003,-0.0006583312060683966
1772457155238440400,0.0944404296875,-0.0030744951218366623,0.001630879007279873,-0.007809451315551996
1772457155248459500,0.10445947265625,-0.0008055403595790267,0.001983353868126869,0.005118050146847963
1772457155258477600,0.1144775390625,-0.0017893119947984815,0.0009966525249183178,0.003921492025256157
1772457155268496600,0.12449658203125,0.001665110350586474,-0.00020657246932387352,-0.004154528956860304
1772457155278514700,0.1345146484375,-0.0005144206807017326,0.0003700018860399723,-0.0015121406177058816
1772457155288533500,0.144533447265625,0.0007755133556202054,-0.0003893994726240635,0.004198869224637747
1772457155298551600,0.154551513671875,-0.000364585779607296,0.0020394036546349525,-0.0006355671212077141
1772457155308569300,0.1645693359375,-0.00012091593816876411,-0.0006582471542060375,-0.0030792837496846914
1772457155318588400,0.17458837890625,-0.0007198608946055174,0.0008538956753909588,0.000056055840104818344
1772457155328606700,0.184606689453125,0.0011654713889583945,-0.0004289057105779648,0.0018382249400019646
1772457155338625500,0.19462548828125,-0.004029024392366409,0.0005135866813361645,0.0006818803958594799
1772457155348643600,0.2046435546875,-0.0011775813763961196,-0.000398063100874424,0.00046285963617265224
1772457155358661400,0.214661376953125,-0.0004651859635487199,-0.00347960670478642,0.0004908228293061256
1772457155368680400,0.224680419921875,-0.0014617432607337832,0.0009584645740687847,-0.0006543907220475376
1772457155378698500,0.234698486328125,0.00007543328683823347,-0.0006388993933796883,0.0016071656718850136
1772457155388717300,0.24471728515625,-0.0004682085709646344,0.0019469731487333775,0.000030592374969273806
1772457155398735600,0.254735595703125,0.0011254269629716873,-0.00246029207482934,0.0002641516039147973
1772457155408754700,0.264754638671875,0.0018773662159219384,-0.00009597698226571083,0.0017578669358044863
1772457155418772500,0.2747724609375,-0.0006334619829431176,-0.0027934927493333817,-0.0007532275631092489
1772457155428790500,0.28479052734375,0.00008350319694727659,0.00018548406660556793,-0.001308106118813157
1772457155438809600,0.2948095703125,0.00008403579704463482,-0.00018815742805600166,0.0018788985908031464
1772457155448827400,0.304827392578125,0.0013337652198970318,0.00041661085560917854,0.00004890176933258772
1772457155458846500,0.314846435546875,0.00028661033138632774,-0.00008006859570741653,-0.00266272877342999
1772457155468864500,0.324864501953125,0.0011465484276413918,0.00007210439071059227,0.0003185706736985594
1772457155478882600,0.334882568359375,0.00018914206884801388,0.000741889700293541,0.0010770389344543219
1772457155488901600,0.344901611328125,0.0019199787639081478,-0.000586317852139473,-0.0015116413123905659
1772457155498919400,0.35491943359375,0.0013218328822404146,0.0013761655427515507,-0.0013015178265050054
1772457155508938500,0.3649384765625,0.0009516596328467131,0.0007309345528483391,0.0012103210901841521
1772457155518956500,0.37495654296875,-0.0002901724074035883,0.002105392049998045,-0.00011966156307607889
1772457155528974600,0.384974609375,0.002976155374199152,-0.0006390661001205444,-0.002179098781198263
1772457155538993700,0.39499365234375,-0.0007429489633068442,0.0009700157679617405,-0.0003854598035104573
1772457155549011500,0.405011474609375,0.0003479339648038149,-0.001651369035243988,-0.0012540589086711407
1772457155559030500,0.415030517578125,0.00039826775901019573,-0.0011027578730136156,0.0004130799206905067
1772457155569048600,0.425048583984375,0.00038708827923983335,-0.0009152712300419807,0.0019622407853603363
1772457155579066600,0.435066650390625,0.0013096072943881154,-0.0003323052078485489,0.0008218751754611731
1772457155589085700,0.445085693359375,0.0014821419026702642,-0.0015001727733761072,0.0023209471255540848
1772457155599103500,0.455103515625,0.00008531392086297274,-0.0013992390595376492,-0.0008359639905393124
1772457155609122600,0.46512255859375,0.0009484009933657944,-0.0006160209886729717,0.0013924995437264442
1772457155619140600,0.475140625,0.0019990180153399706,-0.00022240588441491127,-0.0005595975089818239
1772457155629159400,0.485159423828125,0.0020330639090389013,-0.0005943069700151682,0.0021416801027953625
1772457155639177500,0.495177490234375,-0.0018879079725593328,-0.00026567280292510986,0.00045163813047111034
1772457155649195500,0.505195556640625,0.0018704336835071445,0.00025026919320225716,-0.0008646717760711908
1772457155659214600,0.515214599609375,0.0011862675892189145,-0.000244279857724905,0.004520772490650415
1772457155669232600,0.525232666015625,0.0003648607525974512,-0.0007877994794398546,0.0026004398241639137
1772457155679251500,0.53525146484375,0.001081783790141344,0.0009275428019464016,-0.0005434217164292932
1772457155689269500,0.54526953125,0.0009474141988903284,-0.003068694844841957,0.00005118930130265653
1772457155699287300,0.555287353515625,0.0005138515261933208,0.000873049721121788,0.0018842431018128991
1772457155709306400,0.565306396484375,0.0018217852339148521,-0.0006057287100702524,-0.0006542275077663362
1772457155719324700,0.57532470703125,-0.0019785454496741295,0.001071264035999775,0.0005583097226917744
1772457155729343500,0.585343505859375,0.002126711653545499,0.00023803720250725746,0.0008161402074620128
1772457155739361500,0.595361572265625,0.001032951520755887,-0.0005020555108785629,0.0007162716938182712
1772457155749380600,0.605380615234375,-0.00008009932935237885,0.0014259321615099907,0.00012028924538753927
1772457155759398400,0.6153984375,-0.0018918479327112436,0.0021931887604296207,0.0014987413305789232
1772457155769416400,0.62541650390625,0.000060453545302152634,0.0006947466172277927,-0.00023616576800122857
1772457155779435500,0.635435546875,-0.0028288098983466625,-0.0008189941290766001,0.0005135140381753445
1772457155789453600,0.64545361328125,0.00007377960719168186,-0.00027605192735791206,0.001562872319482267
1772457155799472600,0.65547265625,-0.0005496664671227336,0.0009740358218550682,-0.001105615054257214
1772457155809490400,0.665490478515625,0.00006343179848045111,-0.00031710369512438774,-0.0008426218410022557
1772457155819508500,0.675508544921875,-0.0006399090634658933,0.000542032066732645,0.00023089836759027094
1772457155829527300,0.68552734375,0.0003971036057919264,-0.0008839797228574753,-0.0003733012417796999
1772457155839545600,0.695545654296875,0.000749972416087985,-0.0013044928200542927,-0.00031764115556143224
1772457155849564400,0.705564453125,0.0004688145127147436,-0.0014888409059494734,-0.0008890715544112027
1772457155859582500,0.71558251953125,0.00044111767783761024,-0.0014054840430617332,-0.00215860060416162
1772457155869600300,0.725600341796875,-0.0030141668394207954,-0.0021336961071938276,-0.0007285657920874655
1772457155879619300,0.735619384765625,-0.0002298317849636078,-0.0012721633538603783,0.0011609469074755907
1772457155889637400,0.745637451171875,0.0007399907335639,-0.0011396026238799095,-0.0010846761288121343
1772457155899656200,0.75565625,0.0003663492389023304,-0.00012760143727064133,-0.0017922779079526663
1772457155909674500,0.765674560546875,-0.0009642086224630475,0.00005047908052802086,0.00014299807662609965
1772457155919692500,0.775692626953125,0.0016885660588741302,-0.0016390304081141949,0.001731041120365262
1772457155929711400,0.78571142578125,-0.00013347889762371778,0.009719730354845524,0.004190218634903431
1772457155939729400,0.7957294921875,0.0014718746533617377,-0.0024176263250410557,0.045879341661930084
1772457155949748500,0.80574853515625,0.0005978026892989874,-0.0029599573463201523,0.0017432186286896467
1772457155959766300,0.815766357421875,-0.001034182496368885,-0.0005455354694277048,-0.032739389687776566
1772457155969785300,0.825785400390625,-0.002808912191540003,0.0003554406575858593,-0.003050985513255
1772457155979803400,0.835803466796875,-0.000319655635394156,0.0010731625370681286,0.02595669776201248
1772457155989821400,0.845821533203125,0.0010314574465155602,0.00006793113425374031,0.0006072746473364532
1772457155999840500,0.855840576171875,-0.000399991637095809,0.001002434641122818,-0.020622646436095238
1772457156009858300,0.8658583984375,0.0007591410540044308,0.0007148357108235359,-0.003068190300837159
1772457156019877400,0.87587744140625,0.0004725849721580744,-0.0025003987830132246,0.009101124480366707
1772457156029895400,0.8858955078125,-0.0015696804039180279,-0.001586755272001028,-0.016765451058745384
1772457156039913500,0.89591357421875,-0.00008416909258812666,-0.0010365461930632591,-0.01740674115717411
1772457156049932500,0.9059326171875,-0.0008681502658873796,-0.0006808456964790821,0.011204380542039871
1772457156059950300,0.915950439453125,0.00010390346869826317,0.0004027946852147579,0.007001911755651236
1772457156069969400,0.925969482421875,-0.00006433541420847178,0.002382569946348667,-0.011920290067791939
1772457156079987200,0.9359873046875,0.0007511244621127844,-0.0009900571312755346,-0.0051651811227202415
1772457156090005500,0.946005615234375,-0.0008724844083189964,-0.0007665364537388086,0.009480978362262249
1772457156100024600,0.956024658203125,0.0009712220635265112,0.0009227064438164234,-0.0007117376080714166
1772457156110042400,0.96604248046875,-0.00023688632063567638,-0.0005667370278388262,-0.008523890748620033
1772457156120061400,0.9760615234375,0.0007926917169243097,0.0019645974971354008,-0.00028114079032093287
1772457156130079500,0.98607958984375,0.0018026820616796613,-0.0018702379893511534,0.004773644730448723
1772457156140097300,0.99609716796875,-0.0010495634051039815,-0.0005378585774451494,-0.0010317799169570208
1772457156150116400,1.006116455078125,-0.002283509587869048,-0.0012582291383296251,-0.005469865165650845
1772457156160134400,1.016134521484375,0.00028271228075027466,-0.0006544904317706823,-0.0007390260579995811
1772457156170153500,1.026153564453125,0.0015973702538758516,0.0010442836210131645,0.004125821869820356
1772457156180171500,1.036171630859375,0.0005816406337544322,-0.00018423236906528473,-0.001387720461934805
1772457156190190300,1.0461904296875,0.0013907405082136393,0.0003042561002075672,-0.001711539807729423
1772457156200208400,1.05620849609375,-0.0009152906714007258,0.0023660752922296524,-0.0010060683125630021
1772457156210226200,1.06622607421875,-0.0002097336109727621,0.0004719509743154049,0.002893737517297268
1772457156220245200,1.076245361328125,-0.000644095242023468,0.0011063157580792904,-0.0022640065290033817
1772457156230263600,1.086263671875,0.0005776793695986271,0.00048460811376571655,-0.0002876564394682646
1772457156240282400,1.096282470703125,-0.00068732223007828,-0.000598233425989747,0.0004143528058193624
1772457156250300400,1.106300537109375,0.0008651702082715929,0.0015132320113480091,0.001975712599232793
1772457156260318500,1.116318359375,-0.000517809297889471,0.0013678232207894325,0.0024683973751962185
1772457156270337300,1.126337158203125,0.0006070755189284682,-0.0010787840001285076,0.0006618512561544776
1772457156280355300,1.136355224609375,-0.00020625395700335503,-0.0005368306301534176,0.0010978106874972582
1772457156290374400,1.14637451171875,-0.0007094850298017263,0.001071203500032425,0.000013298820704221725
1772457156300392400,1.156392333984375,-0.0008959062397480011,-0.0010207095183432102,-0.0012040322180837393
1772457156310410500,1.166410400390625,-0.0018849809421226382,0.0012319013476371765,-0.004252552520483732
1772457156320429300,1.17642919921875,-0.0012127991067245603,-0.0009889088105410337,0.0002529833000153303
1772457156330447400,1.186447265625,-0.00060398003552109,-0.0007592516485601664,0.0006371202762238681
1772457156340466400,1.196466552734375,-0.0006537811132147908,-0.0017193211242556572,0.0005441759712994099
1772457156350484500,1.206484375,0.0015453093219548464,-0.0013616771902889013,-0.0013595243217423558
1772457156360502500,1.21650244140625,-0.0004632467171177268,-0.0018714063335210085,-0.00011156703112646937
1772457156370521300,1.226521240234375,0.0017001084052026272,-0.00019482756033539772,0.0006512863328680396
1772457156380539400,1.236539306640625,-0.00018647487740963697,-0.000005210749804973602,-0.0015250489814206958
1772457156390558500,1.246558349609375,-0.000012157950550317764,0.0024046357721090317,0.0007119551301002502
1772457156400576300,1.256576171875,-0.0003996477462351322,0.000955875962972641,-0.0010574490297585726
1772457156410595300,1.26659521484375,-0.0013544689863920212,-0.0012156611774116755,0.0005593742243945599
1772457156420613400,1.27661328125,0.0003337087109684944,-0.0011480168905109167,-0.0007953757303766906
1772457156430631400,1.28663134765625,0.001707417774014175,0.00042000971734523773,0.00035896225017495453
1772457156440650500,1.296650390625,-0.0015331165632233024,0.00021121744066476822,0.000989598804153502
1772457156450668300,1.306668212890625,0.0020199541468173265,-0.00005785701796412468,0.0010980407241731882
1772457156460687400,1.316687255859375,-0.00019419798627495766,0.000575176440179348,-0.001978709362447262
1772457156470705400,1.326705322265625,-0.0009080846793949604,0.0007779225707054138,-0.0018700705841183662
1772457156480723500,1.336723388671875,0.0004109789151698351,-0.0014767094980925322,-0.002342249033972621
1772457156490742500,1.346742431640625,0.0020920259412378073,-0.0012758581433445215,0.0017658555880188942
1772457156500760300,1.35676025390625,-0.0013375929556787014,0.00008741393685340881,0.0016737101832404733
1772457156510779400,1.366779296875,0.0018815714865922928,-0.0005642224568873644,0.0007409804384224117
1772457156520797400,1.37679736328125,0.0003899349831044674,-0.001214832765981555,0.0013055705931037664
1772457156530815500,1.3868154296875,0.0006838429253548384,-0.00038451189175248146,0.0016117279883474112
1772457156540834300,1.396834228515625,-0.0005462710978463292,-0.0009624180383980274,0.0009523294284008443
1772457156550852400,1.406852294921875,-0.0013021265622228384,-0.0006242888048291206,-0.000017630081856623292
1772457156560871400,1.416871337890625,0.00013464875519275665,0.00012698909267783165,-0.0018344386480748653
1772457156570889500,1.426889404296875,0.0005269242683425546,0.00038829585537314415,0.0008040973334573209
1772457156580907300,1.4369072265625,0.0020204249303787947,0.00039042625576257706,-0.0012803588761016726
1772457156590926300,1.44692626953125,0.0028026667423546314,-0.0025999248027801514,0.0006363396532833576
1772457156600944600,1.456944580078125,-0.0005446604918688536,-0.001242778031155467,0.0013237014645710588
1772457156610963500,1.46696337890625,0.0018209650879725814,-0.0002980465069413185,-0.0009496093261986971
1772457156620981500,1.4769814453125,-0.0001313983229920268,0.00042260484769940376,-0.0007448121905326843
1772457156630999300,1.486999267578125,-0.0014700056053698063,0.00024264631792902946,-0.0032755082938820124
1772457156641018400,1.497018310546875,0.0008850278682075441,0.001443465705960989,0.0025640048552304506
1772457156651036400,1.507036376953125,0.0010330881923437119,-0.0006737851072102785,-0.0010275555541738868
1772457156661055200,1.51705517578125,0.0006748930318281054,0.0002961382269859314,-0.0021868296898901463
1772457156671073500,1.527073486328125,0.00028177141211926937,0.00031720660626888275,0.0005152062512934208
1772457156681091300,1.53709130859375,0.0008152025402523577,0.0013494477607309818,-0.0011253010015934706
1772457156691110400,1.5471103515625,-0.0005783443339169025,-0.0010219139512628317,-0.000052397954277694225
1772457156701128400,1.55712841796875,0.0010334006510674953,-0.0001539899967610836,0.000689026084728539
1772457156711147300,1.567147216796875,-0.0005399163346737623,0.0016984166577458382,0.0012168317334726453
1772457156721165300,1.577165283203125,-0.0008381903171539307,0.0010549970902502537,0.001251452835276723
1772457156731184400,1.587184326171875,-0.00045901047997176647,-0.0002233283594250679,-0.00048629322554916143
1772457156741202400,1.597202392578125,-0.00019242800772190094,0.0014347555115818977,0.0011851065792143345
1772457156751220500,1.607220458984375,0.0006073808763176203,-0.0006483064498752356,-0.002106036525219679
1772457156761239300,1.6172392578125,-0.0002405697014182806,-0.0009809352923184633,0.00015099268057383597
1772457156771257300,1.62725732421875,0.00010539370123296976,-0.0004755703266710043,0.002732306718826294
1772457156781276400,1.6372763671875,0.0032673648092895746,0.00003442494198679924,0.003032444976270199
1772457156791294500,1.64729443359375,0.0009297127835452557,0.000330938957631588,0.00044341039028950036
1772457156801312500,1.6573125,0.0008772484725341201,0.000032664742320775986,0.000004521454684436321
1772457156811331600,1.66733154296875,-0.0007630232721567154,-0.0024872678332030773,0.0006223726086318493
1772457156821348900,1.677348876953125,-0.0010431876871734858,-0.003106985241174698,-0.0025068416725844145
1772457156831367700,1.68736767578125,0.0016612840117886662,0.000003976747393608093,-0.000824625720269978
1772457156841385700,1.6973857421875,0.0009859063429757953,0.002104678191244602,-0.0007974614854902029
1772457156851403800,1.70740380859375,-0.00022131705190986395,0.002067403867840767,-0.0024710828438401222
1772457156861422800,1.7174228515625,-0.0017808642005547881,0.007068021222949028,0.01062927208840847
1772457156871441000,1.72744091796875,-0.001285289996303618,0.004525582306087017,0.015517983585596085
1772457156881459700,1.737459716796875,-0.0009987339144572616,0.00030393991619348526,-0.0018343755509704351
1772457156891477800,1.747477783203125,-0.0014547115424647927,-0.000795324333012104,-0.006031834986060858
1772457156901495800,1.757495849609375,0.0012393421493470669,-0.0044172233901917934,0.00552015844732523
1772457156911515000,1.767514892578125,0.0021812324412167072,-0.0006248140707612038,0.0012086430797353387
1772457156921533000,1.777532958984375,-0.0006526372162625194,-0.0006913929246366024,-0.014755410142242908
1772457156931552000,1.787552001953125,0.000397001625970006,0.0007706494070589542,-0.016850678250193596
1772457156941569800,1.79756982421875,-0.0003683909308165312,0.0007791714742779732,0.004206669516861439
1772457156951587800,1.807587890625,0.0005006875144317746,0.0021152556873857975,0.010733438655734062
1772457156961606700,1.817606689453125,0.0012682104716077447,-0.0020472651813179255,-0.007346229627728462
1772457156971625000,1.827625,-0.00062211649492383,0.00019831303507089615,-0.004984093364328146
1772457156981644000,1.83764404296875,0.0006471461383625865,0.0015301601961255074,0.004299153573811054
1772457156991661800,1.847661865234375,0.0011147242039442062,-0.0013436612207442522,0.0034900307655334473
1772457157001680000,1.857679931640625,0.0008894207421690226,0.0013320166617631912,-0.006007334217429161
1772457157011698700,1.86769873046875,-0.0007758138235658407,-0.0005297081079334021,-0.0015297099016606808
1772457157021716700,1.877716796875,-0.00018752145115286112,-0.003381687216460705,0.004389165434986353
1772457157031735800,1.88773583984375,0.002052366966381669,-0.000951745081692934,0.00012011849321424961
1772457157041753900,1.89775390625,0.0019000342581421137,-0.003638075664639473,-0.0006450076471082866
1772457157051772000,1.90777197265625,-0.0024159408640116453,-0.0008340724743902683,-0.0016971318982541561
1772457157061790700,1.917790771484375,-0.0008545296732336283,0.0008349306881427765,0.0010232870699837804
1772457157071808800,1.927808837890625,-0.00045533233787864447,-0.003168655326589942,-0.0016931399004533887
1772457157081827800,1.937827880859375,-0.00018768454901874065,0.001435949932783842,-0.00011175486724823713
1772457157091845600,1.947845703125,0.0020451911259442568,-0.0034695775248110294,0.0010210839100182056
1772457157101864000,1.957864013671875,-0.0005412709433585405,-0.0004519498907029629,0.0035345752257853746
1772457157111883000,1.967883056640625,0.0001010349951684475,0.0005368306301534176,-0.000961923913564533
1772457157121900800,1.97790087890625,0.0009101032628677785,-0.00034547457471489906,0.0013995009940117598
1772457157131920000,1.987919921875,-0.0008729411056265235,-0.0012306640855967999,0.0014320822665467858
1772457157141937700,1.997937744140625,-0.0013595005730167031,-0.0034054014831781387,0.002355400240048766
1772457157151956700,2.007956787109375,0.00016333535313606262,-0.0011343997903168201,0.0008810379076749086
1772457157161974800,2.017974853515625,-0.00010591023601591587,0.0019772378727793694,0.0019268612377345562
1772457157171992800,2.027992919921875,-0.0005506128072738647,0.0019451379776000977,0.0011699546594172716
1772457157182012000,2.038011962890625,0.0008555363165214658,-0.0014807521365582943,-0.0032538222149014473
1772457157192029700,2.04802978515625,-0.001985063310712576,-0.0008259168826043606,0.0014265412464737892
1772457157202048800,2.058048828125,0.0012714499607682228,0.000021234620362520218,0.0010670144110918045
1772457157212066800,2.06806689453125,-0.002529728226363659,-0.0006434547249227762,0.0029071378521621227
1772457157222084900,2.0780849609375,0.00009375170338898897,0.0014199623838067055,0.0016823499463498592
1772457157232104000,2.08810400390625,0.00016028026584535837,-0.0020893027540296316,0.0005941095296293497
1772457157242122000,2.0981220703125,-0.0010296199470758438,-0.0015287073329091072,-0.00015903241001069546
1772457157252140800,2.108140869140625,0.00016491056885570288,0.000694268848747015,-0.00046781677519902587
1772457157262158800,2.118158935546875,0.0010829021921381354,-0.001177400816231966,0.0017990658525377512
1772457157272176600,2.1281767578125,0.00047607708256691694,-0.0016299423296004534,0.0007540208753198385
1772457157282195700,2.13819580078125,-0.0016155696939677,-0.0004941041115671396,0.0002762497460935265
1772457157292214000,2.148214111328125,0.0002630694070830941,-0.00063519855029881,-0.0009832109790295362
1772457157302232800,2.15823291015625,0.0013264695880934596,-0.0009595716837793589,0.001013094442896545
1772457157312251000,2.1682509765625,-0.001051815110258758,0.0007447972893714905,0.0008475002250634134
1772457157322268700,2.1782685546875,0.00034687714651227,-0.003530374960973859,0.002686945488676429
1772457157332287700,2.188287841796875,0.0016921699279919267,0.0005731666460633278,-0.0005476961960084736
1772457157342305800,2.198305908203125,-0.0015430380590260029,-0.0013027642853558064,0.001265650149434805
1772457157352324600,2.20832470703125,-0.0001974708866328001,0.0005967970937490463,-0.00040043884655460715
1772457157362343000,2.218343017578125,0.00111147272400558,0.002511077094823122,-0.0019613176118582487
1772457157372360700,2.228360595703125,-0.000015626195818185806,0.001008699182420969,-0.0005307551473379135
1772457157382379800,2.2383798828125,0.0008815928013063967,0.00034024566411972046,-0.00013181357644498348
1772457157392397800,2.248397705078125,-0.00018107390496879816,0.0012678783386945724,-0.0022365644108504057
1772457157402416600,2.258416748046875,0.0006575555307790637,0.00001672515645623207,0.0008902530535124242
1772457157412435000,2.26843505859375,-0.0012852747458964586,0.0008663805201649666,-0.0027464020531624556
1772457157422453000,2.278452880859375,-0.00033106422051787376,0.0012828987091779709,-0.0006720658275298774
1772457157432471800,2.288471923828125,-0.00002903444692492485,0.00013953261077404022,-0.0021227076649665833
1772457157442489900,2.29848974609375,-0.002731077838689089,0.0004276866093277931,0.0005617585266008973
1772457157452509000,2.308509033203125,-0.0004452636931091547,0.00021955138072371483,-0.0010018169414252043
1772457157462526700,2.318526611328125,0.0014240089803934097,-0.002544277347624302,-0.001045759068801999
1772457157472545000,2.328544921875,0.0005153798265382648,-0.0004093986935913563,-0.0018645903328433633
1772457157482563800,2.338563720703125,0.0017905012937262654,-0.0010632046032696962,0.000263808062300086
1772457157492582000,2.348581787109375,-0.002990062814205885,-0.0013201013207435608,-0.0008694034186191857
1772457157502601000,2.35860107421875,0.00046166020911186934,-0.00024418439716100693,0.00015431572683155537
1772457157512618800,2.36861865234375,0.0014055079082027078,0.0009414805099368095,-0.0015284842811524868
1772457157522636800,2.37863671875,0.0013221509288996458,0.0004021902568638325,-0.0019226321019232273
1772457157532655600,2.388655517578125,0.0017724466742947698,0.00040392065420746803,0.0010442354250699282
1772457157542674000,2.398673828125,0.002657415112480521,-0.001027528429403901,0.0006386359455063939
1772457157552693000,2.40869287109375,0.0031017614528536797,0.0010898164473474026,-0.0018647175747901201
1772457157562710800,2.418710693359375,0.003093505511060357,0.0014277715235948563,-0.0005738832405768335
1772457157572728800,2.428728759765625,0.000059940037317574024,0.00041152583435177803,-0.001934695290401578
1772457157582748000,2.438747802734375,-0.0005781534127891064,0.002293582074344158,-0.00023240273003466427
1772457157592765700,2.448765625,0.00036659056786447763,-0.0009116728324443102,-0.0004721737641375512
1772457157602784800,2.45878466796875,-0.00047443562652915716,-0.0016645484138280153,-0.002276199171319604
1772457157612802800,2.468802734375,0.00017046614084392786,0.00041678035631775856,0.001145079848356545
1772457157622822000,2.47882177734375,0.0013276096433401108,-0.0011134720407426357,0.002718741539865732
1772457157632840000,2.48883984375,0.0009897964773699641,-0.000470784492790699,-0.0001175234210677445
1772457157642857700,2.498857666015625,-0.0005785389803349972,-0.00004095025360584259,0.00047689411439932883
1772457157652876800,2.508876708984375,0.0011971087660640478,0.0003958079032599926,0.001688356976956129
1772457157662894800,2.518894775390625,0.0005592816742137074,-0.0015357828233391047,0.003985599614679813
1772457157672913700,2.52891357421875,0.000351249473169446,0.0009386599995195866,0.00045932349166832864
1772457157682932000,2.538931884765625,-0.0008567605400457978,-0.0016739012207835913,0.0000188366393558681
1772457157692949800,2.54894970703125,0.00029545603320002556,-0.001683373237028718,0.0013511334545910358
1772457157702968800,2.55896875,0.0014086572919040918,-0.0014386288821697235,0.001009183470159769
1772457157712986600,2.568986572265625,-0.0024401028640568256,-0.00016232719644904137,-0.002744717290624976
1772457157723005700,2.579005615234375,-0.0007724317256361246,0.0007279673591256142,0.0009823765140026808
1772457157733024000,2.58902392578125,-0.0010817162692546844,-0.0010231626220047474,0.00039458618266507983
1772457157743041800,2.599041748046875,0.0004978044889867306,-0.00009185494855046272,-0.0007100930088199675
1772457157753060900,2.609060791015625,-0.001890740473754704,0.000006827060133218765,-0.0005225011263974011
1772457157763079000,2.619078857421875,0.00042061705607920885,-0.00040356582030653954,-0.0006093201809562743
1772457157773097700,2.62909765625,-0.0012021163711324334,-0.000538867199793458,0.0007790809031575918
1772457157783115800,2.63911572265625,-0.0006995779694989324,-0.00039052916690707207,-0.001775955781340599
1772457157793133800,2.6491337890625,-0.0012642116053029895,0.002509988844394684,0.00005788225098513067
1772457157803153000,2.65915283203125,0.0005395474145188928,-0.00017181457951664925,-0.00015144221833907068
1772457157813171000,2.6691708984375,0.0006615880411118269,-0.0023112327326089144,0.00015820701082702726
1772457157823191000,2.67919091796875,0.0005534637020900846,-0.0004683251027017832,-0.0016713845543563366
1772457157833209000,2.689208984375,-0.0030675234738737345,0.0015105931088328362,-0.001765465596690774
1772457157843227100,2.69922705078125,0.0005192219978198409,-0.0013906543608754873,0.00043084341450594366
1772457157853246200,2.70924609375,-0.00010908499825745821,-0.0016241681296378374,-0.0016026347875595093
1772457157863264000,2.719263916015625,0.00008745631203055382,-0.0005908617749810219,-0.0006657346966676414
1772457157873283000,2.729282958984375,0.000542587018571794,-0.000299863051623106,-0.0005460405955091119
1772457157883301400,2.73930126953125,-0.0007237460231408477,0.00026872195303440094,-0.0033290439750999212
1772457157893319200,2.749319091796875,0.0001980435336008668,0.00003987504169344902,0.0017803332302719355
1772457157903338200,2.759338134765625,-0.0016717618564143777,-0.000614996301010251,0.0005720570916309953
1772457157913356000,2.76935595703125,0.0003060377202928066,-0.00017521949484944344,0.0017328597605228424
1772457157923375000,2.779375,0.00006582064088433981,0.0012453105300664902,-0.001147881499491632
1772457157933393200,2.78939306640625,-0.0026367155369371176,-0.0012107384391129017,-0.000494683044962585
1772457157943411200,2.7994111328125,0.0012182103237137198,-0.0025287368334829807,-0.0019562258385121822
1772457157953430300,2.80943017578125,-0.002075065393000841,-0.0015084801707416773,-0.0006722492398694158
1772457157963448000,2.819447998046875,0.000718590512406081,0.0010819765739142895,0.0012670645955950022
1772457157973467100,2.829467041015625,-0.0017827217234298587,-0.000029229559004306793,0.0012878421694040298
1772457157983485200,2.839485107421875,-0.000890829018317163,0.000045072752982378006,0.0017437753267586231
1772457157993503000,2.8495029296875,-0.0004981076344847679,-0.0026206872425973415,-0.002023703418672085
1772457158003522000,2.85952197265625,0.0015386780723929405,0.003132806159555912,-0.0021704435348510742
1772457158013540400,2.869540283203125,-0.0004745249170809984,0.0006840839050710201,-0.0022801493760198355
1772457158023559200,2.87955908203125,-0.0004891722928732634,-0.001954842358827591,0.0005433341721072793
1772457158033577200,2.8895771484375,0.0004932445008307695,0.00011736573651432991,0.0030478271655738354
1772457158043595000,2.899594970703125,-0.0011685679201036692,-0.0009849164634943008,0.0010113080497831106
1772457158053614000,2.909614013671875,0.0007366757490672171,0.0005979868583381176,0.0015086425701156259
1772457158063632100,2.919632080078125,-0.0010114231845363975,0.0008432636968791485,0.00008971034549176693
1772457158073651200,2.929651123046875,0.0010882348287850618,0.0008189314976334572,-0.0006354697979986668
1772457158083669200,2.939669189453125,-0.0006023398600518703,0.00012837396934628487,-0.001799271209165454
1772457158093687000,2.94968701171875,-0.001772953080944717,0.00039786798879504204,-0.0013222855050116777
1772457158103706000,2.9597060546875,0.0013496032916009426,0.001215991098433733,0.0006969231180846691
1772457158113724200,2.96972412109375,0.0009014804963953793,0.00009514903649687767,0.0004080961807630956
1772457158123743000,2.979742919921875,0.00022397225257009268,0.0015265983529388905,0.00013565481640398502
1772457158133761300,2.98976123046875,-0.001331534469500184,0.001836359966546297,-0.0008362886146642268
1772457158143779000,2.999779052734375,-0.0007778631988912821,-0.0014305398799479008,0.0027312820311635733
1772457158153798100,3.009798095703125,0.00040210247971117496,0.002579138148576021,0.0004630186303984374
1772457158163816200,3.019816162109375,-0.0014234945410862565,0.00031198887154459953,0.0005809966824017465
1772457158173835000,3.0298349609375,0.0009128630626946688,-0.0020047882571816444,0.00365397147834301
1772457158183853000,3.03985302734375,0.0008409576839767396,0.0011388068087399006,-0.0008638150757178664
1772457158193871400,3.049871337890625,-0.000044499640353024006,-0.002646907465532422,-0.0003823302104137838
1772457158203890200,3.05989013671875,0.00036429567262530327,0.00003862427547574043,-0.0003447796334512532
1772457158213908200,3.069908203125,0.0012235904578119516,-0.0011612665839493275,0.0012552409898489714
1772457158223927300,3.07992724609375,-0.00017616699915379286,-0.00041451631113886833,0.00013564799155574292
1772457158233945000,3.089945068359375,0.000563637469895184,-0.001550944522023201,0.0011716610752046108
1772457158243963100,3.099963134765625,0.000048582092858850956,0.00322277145460248,0.0007554090116173029
1772457158253982000,3.10998193359375,-0.002568440977483988,0.00020503904670476913,-0.0009649551939219236
1772457158264000300,3.120000244140625,0.0007791525567881763,0.0006604399532079697,-0.00017213218961842358
1772457158274019300,3.130019287109375,0.000029791262932121754,-0.0005397733766585588,-0.0021861346904188395
1772457158284037000,3.140037109375,-0.0004197503440082073,-0.0016045053489506245,-0.0005829115980304778
1772457158294056200,3.15005615234375,-0.0004701089346781373,-0.001703842543065548,-0.0007707597105763853
1772457158304074000,3.160073974609375,0.000938170705921948,-0.0012111577671021223,0.0016910664271563292
1772457158314092000,3.170092041015625,0.00020896992646157742,-0.0010415723081678152,-0.0006564748473465443
1772457158324111000,3.180111083984375,-0.0007076900219544768,0.0012578009627759457,-0.0019148184219375253
1772457158334129200,3.190129150390625,-0.00036830396857112646,-0.0013872943818569183,-0.000010953197488561273
1772457158344148200,3.200148193359375,0.0010849828831851482,0.001208222471177578,0.00026495030033402145
1772457158354166300,3.210166259765625,0.00010488799307495356,0.0010841856710612774,-0.0011764753144234419
1772457158364184000,3.22018408203125,-0.0009502563625574112,0.002246655523777008,-0.0006244019605219364
1772457158374203100,3.230203125,0.001938828150741756,-0.0012059449218213558,0.0014648751821368933
1772457158384221200,3.24022119140625,0.0008317520841956139,-0.002459228504449129,0.0009647334809415042
1772457158394240300,3.250240234375,0.0010483133373782039,0.002075168304145336,-0.00022852994152344763
1772457158404258300,3.26025830078125,-0.0001905892277136445,0.0002743387594819069,-0.00004503814852796495
1772457158414276000,3.270276123046875,0.0018112064572051167,-0.0012560714967548847,-0.00020480647799558938
1772457158424295200,3.280295166015625,0.0004993332549929619,-0.0008507382590323687,-0.0023105680011212826
1772457158434313000,3.29031298828125,-0.0009022860322147608,0.0016575180925428867,-0.001728581846691668
1772457158444332000,3.30033203125,-0.0011070831678807735,0.0023097265511751175,-0.0006449415814131498
1772457158454350300,3.310350341796875,-0.001910239108838141,0.0013964828103780746,0.003005186328664422
1772457158464368000,3.3203681640625,-0.0012958479346707463,-0.000335104763507843,-0.00046730940812267363
1772457158474387200,3.33038720703125,-0.000773100764490664,-0.001258724369108677,-0.0006441654986701906
1772457158484405000,3.340405029296875,0.0014224093174561858,-0.002110403263941407,0.0028094216249883175
1772457158494424000,3.350424072265625,0.0010177541989833117,-0.0004992347676306963,0.0008779207710176706
1772457158504442000,3.360442138671875,-0.0003260767553001642,-0.0005660802125930786,-0.0016749853966757655
1772457158514460200,3.370460205078125,0.0004527310375124216,-0.0005072557833045721,0.00008469761814922094
1772457158524479200,3.380479248046875,0.001965672941878438,0.0008594784885644913,0.0005166623741388321
1772457158534497300,3.390497314453125,0.0010241682175546885,0.002251196186989546,-0.001667789532802999
1772457158544516000,3.40051611328125,0.00183803029358387,0.0001544896513223648,0.001973284175619483
1772457158554534100,3.4105341796875,0.0021485048346221447,-9.201467037200928e-7,0.0013054718729108572
1772457158564552200,3.42055224609375,0.0011876362841576338,-0.0003178361803293228,0.0005954731022939086
1772457158574571000,3.430571044921875,0.0007354289991781116,-0.00042001716792583466,0.001335867214947939
1772457158584589300,3.44058935546875,0.001138365245424211,0.0016085128299891949,-0.001189608359709382
1772457158594608000,3.450608154296875,0.0007115136831998825,-0.0005042916163802147,-0.00039983465103432536
1772457158604626200,3.460626220703125,-0.000863746041432023,0.00005071097984910011,0.0015594529686495662
1772457158614644000,3.47064404296875,0.00006706221029162407,0.00007088528946042061,0.0014100077096372843
1772457158624663000,3.4806630859375,-0.00022961385548114777,-0.0002945004962384701,-0.0015796568477526307
1772457158634681300,3.490681396484375,0.0010775851551443338,-0.003587501822039485,-0.00004980689845979214
1772457158644700200,3.5007001953125,-0.00035359757021069527,-0.00009609758853912354,0.0008777721086516976
1772457158654718200,3.51071826171875,0.0008332790457643569,-0.0003047771751880646,-0.002562452806159854
1772457158664736000,3.520736083984375,0.000049510737881064415,-0.0011918763630092144,-0.000036710844142362475
1772457158674755000,3.530755126953125,0.0007793338154442608,-0.0007751330267637968,0.001984572736546397
1772457158684773000,3.540773193359375,-0.00013572827447205782,-0.0006997655145823956,0.0006753627094440162
1772457158694792000,3.5507919921875,-0.0007637216476723552,-0.0006956134457141161,-0.0006783305434510112
1772457158704810200,3.560810302734375,-0.001203942229039967,0.0009342408739030361,0.0023520805407315493
1772457158714828300,3.570828369140625,-0.0001271107466891408,-0.00145097472704947,0.0014207668136805296
1772457158724847000,3.58084716796875,-0.0018560349708423018,-0.000775863416492939,0.000398112868424505
1772457158734865200,3.590865234375,0.000502750976011157,0.00020026881247758865,0.0007349866791628301
1772457158744884200,3.60088427734375,0.000169056816957891,-0.0003805668093264103,-0.0007886078092269599
1772457158754902000,3.610902099609375,-0.0008542435243725777,-0.0038416883908212185,-0.0004165219725109637
1772457158764920300,3.62092041015625,-0.0016457349993288517,0.0024923738092184067,0.0008032057667151093
1772457158774939100,3.630939208984375,0.0006155746523290873,0.00012491177767515182,0.0007442697533406317
1772457158784957200,3.640957275390625,-0.0006113435374572873,0.0010884436778724194,0.0010579901281744242
1772457158794976300,3.650976318359375,-0.0010420510079711676,0.0004678112454712391,-0.0006331370677798986
1772457158804994000,3.660994140625,-0.00027399533428251743,0.0024939444847404957,0.0012625008821487427
1772457158815012000,3.67101220703125,-0.00009351037442684174,0.000024092383682727814,-0.0013240892440080643
1772457158825030700,3.68103076171875,0.0005104945739731193,-0.00006485730409622192,0.0007622310658916831
1772457158835048700,3.691048583984375,0.0015800560358911753,-0.002292221412062645,0.0011590803042054176
1772457158845067800,3.70106787109375,0.000639161269646138,-0.0002165534533560276,-0.003471624106168747
1772457158855085600,3.71108544921875,-0.00042114011012017727,0.001660842914134264,0.0017252885736525059
1772457158865103600,3.721103515625,0.0007778150611557066,-0.0013112451415508986,0.0007164832204580307
1772457158875122400,3.731122314453125,0.0011468870798125863,0.00024783797562122345,0.0017072019400075078
1772457158885140700,3.741140625,0.002869153395295143,0.0005517047829926014,0.00005737363244406879
1772457158895159800,3.751159912109375,-0.0008576825493946671,-0.0004455563612282276,-0.0010392141994088888
1772457158905177600,3.761177490234375,0.0013394253328442574,-0.0013739343266934156,0.002803993644192815
1772457158915195600,3.771195556640625,-0.0015203147195279598,0.002286795061081648,-0.0012339752865955234
1772457158925214700,3.781214599609375,-0.0018292414024472237,-0.0010829027742147446,-0.0012363721616566181
1772457158935232500,3.791232421875,-0.0006355989025905728,-0.0014876446221023798,0.00008373052696697414
1772457158945251600,3.80125146484375,0.00014071271289139986,-0.003528957488015294,-0.0012427900219336152
1772457158955269600,3.81126953125,0.0020530768670141697,-0.0000639050267636776,0.001150044845417142
1772457158965287700,3.82128759765625,-0.00021939852740615606,-0.0012484791222959757,-0.0010728957131505013
1772457158975306800,3.831306640625,-0.00013401440810412169,0.0002902606502175331,0.0005801755469292402
1772457158985324500,3.841324462890625,-0.0005481359548866749,-0.002286347793415189,-0.0009503430919721723
1772457158995343600,3.851343505859375,0.0002064703730866313,-0.0015248958952724934,0.0016981500666588545
1772457159005361700,3.861361572265625,0.0017907848814502358,0.001319892704486847,-0.0006904389592818916
1772457159015379700,3.871379638671875,0.0023113691713660955,0.0012513883411884308,0.00028361071599647403
1772457159025398800,3.881398681640625,-0.0008969410555437207,-0.0015462625306099653,0.0012924161273986101
1772457159035416600,3.89141650390625,0.0019049437250941992,0.0003362237475812435,0.0005954158259555697
1772457159045435600,3.901435546875,0.0009030625224113464,0.0022358568385243416,0.0022937136236578226
1772457159055453400,3.911453369140625,0.0013791266828775406,-0.0016220626421272755,-0.0033136075362563133
1772457159065471700,3.9214716796875,0.00011705467477440834,0.0007710540667176247,0.00007819445454515517
1772457159075490800,3.93149072265625,0.0012290612794458866,-0.0011070051696151495,0.0009478393476456404
1772457159085508600,3.941508544921875,0.0003193254815414548,-0.0014361718203872442,0.0029057953506708145
1772457159095527700,3.951527587890625,0.0008149609784595668,-0.0007899473421275616,-0.0014255159767344594
1772457159105545700,3.961545654296875,0.0020964741706848145,-0.0014213828835636377,0.0007569445297122002
1772457159115564500,3.971564453125,0.0006175064481794834,-0.0012255199253559113,-0.0008074315264821053
1772457159125582600,3.98158251953125,-0.00038836942985653877,0.001376388594508171,0.00008179800352081656
1772457159135600600,3.9916005859375,0.0017308456590399146,-0.0014094244688749313,0.00033990011434070766
1772457159145619700,4.00161962890625,0.0008040656102821231,0.0008768993429839611,-0.0026226004119962454
1772457159155637800,4.0116376953125,0.0009653693996369839,0.00033809756860136986,0.00029326416552066803
1772457159165655600,4.021655517578125,0.001209314912557602,-0.0015277129132300615,0.002866144059225917
1772457159175674600,4.031674560546875,-0.0007250814232975245,-0.0019698413088917732,-0.0004295848193578422
1772457159185692700,4.041692626953125,0.0009319373057223856,0.000609696377068758,-0.0006634103483520448
1772457159195711500,4.05171142578125,0.001133372075855732,-0.002446973230689764,-0.0003827437467407435
1772457159205729800,4.061729736328125,-0.0009665304096415639,-0.0014650656376034021,-0.00014226030907593668
1772457159215748600,4.07174853515625,0.0018159584142267704,-0.0016339065041393042,0.0016012042760849
1772457159225766700,4.0817666015625,0.0023608412593603134,0.0007301815785467625,-0.00023637688718736172
1772457159235784700,4.09178466796875,0.003371556755155325,-0.0006405818276107311,0.0002346315304748714
1772457159245803500,4.101803466796875,0.0001781601458787918,0.002497953362762928,0.0015001656720414758
1772457159255821800,4.11182177734375,0.0007261046557687223,-0.001677373657003045,0.0007220393745228648
1772457159265841000,4.1218408203125,0.0018954987172037363,-0.00017881300300359726,0.0007454751757904887
1772457159275858700,4.131858642578125,-0.002015824895352125,-0.0020757406018674374,0.0010416667209938169
1772457159285876700,4.141876708984375,0.0001248238841071725,0.0017632059752941132,-0.0008406555280089378
1772457159295895600,4.1518955078125,-0.0017267295625060797,0.00029869982972741127,-0.0008290201658383012
1772457159305913600,4.16191357421875,-0.0007245820015668869,-0.0011023893021047115,0.00021387370361480862
1772457159315932700,4.1719326171875,-0.0007155941566452384,0.0012064254842698574,-0.0020781622733920813
1772457159325950700,4.18195068359375,0.0009914920665323734,-0.0004993292968720198,-0.00038465819670818746
1772457159335968800,4.19196875,0.0006325209978967905,-0.0014872674364596605,-0.0000031873350962996483
1772457159345987600,4.201987548828125,0.0005204018671065569,-0.0009181499481201172,-0.000831430428661406
1772457159356005600,4.212005615234375,0.00046482146717607975,-0.0007004619110375643,-0.001933525549247861
1772457159366024700,4.222024658203125,0.0018169083632528782,0.0007637441158294678,-0.0008477549417875707
1772457159376042500,4.23204248046875,0.0010123384417966008,-0.000365664716809988,-0.0005269093671813607
1772457159386060800,4.242060791015625,-0.00025346199981868267,-0.00023996364325284958,0.0017082816921174526
1772457159396079600,4.25207958984375,0.0006269318400882185,-0.0009602964855730534,0.0019174773478880525
1772457159406097700,4.26209765625,-0.00039252627175301313,-0.00035416102036833763,-0.0009866998298093677
1772457159416116700,4.27211669921875,-0.0003203912638127804,-0.0027328357100486755,0.0011517045786604285
1772457159426134500,4.282134521484375,0.000924370251595974,-0.001498993020504713,-0.001066175987944007
1772457159436152600,4.292152587890625,0.0009435081155970693,-0.0014698628801852465,-0.0002465661382302642
1772457159446171600,4.302171630859375,-0.000039464677684009075,-0.0018991644028574228,0.0018283026292920113
1772457159456189700,4.312189697265625,-0.0010885228402912617,0.0004487740807235241,-0.0016568675637245178
1772457159466208800,4.322208740234375,-0.000869078328832984,0.0002229376696050167,-0.0010454056318849325
1772457159476226600,4.3322265625,0.00040647375863045454,-0.0005817865021526814,-0.0010695845121517777
1772457159486244600,4.34224462890625,-0.0017046139109879732,0.0025820485316216946,-0.00022802563034929335
1772457159496263700,4.352263671875,0.0013090572319924831,0.0022156699560582638,-0.0016933500301092863
1772457159506281700,4.36228173828125,-0.00035089103039354086,0.0010321615263819695,-0.0011119816917926073
1772457159516300800,4.37230078125,0.0005869613378308713,-0.0012539220042526722,0.000022299063857644796
1772457159526318600,4.382318603515625,0.0028839376755058765,-0.002674718387424946,-0.0009023504098877311
1772457159536336600,4.392336669921875,-0.00018474750686436892,-0.0004957993514835835,0.00048210768727585673
1772457159546355700,4.402355712890625,0.0003492163959890604,-0.0006606490351259708,0.0026770851109176874
1772457159556373500,4.41237353515625,0.0028677915688604116,-0.0007168247830122709,0.0025680996477603912
1772457159566392600,4.422392578125,0.001321560237556696,0.0003388524055480957,0.0008706009248271585
1772457159576410600,4.43241064453125,0.0008451007306575775,0.0003743167035281658,0.0008329031988978386
1772457159586428700,4.4424287109375,-0.0003714312333613634,-0.002050757873803377,0.0005966807948425412
1772457159596447700,4.45244775390625,-0.000495106796734035,0.0013877875171601772,0.000437322974903509
1772457159606465500,4.462465576171875,-0.0007124206749722362,0.0003491546958684921,-0.0032218603882938623
1772457159616484600,4.472484619140625,-0.0006509597878903151,0.000329767819494009,-0.0002935082302428782
1772457159626502700,4.482502685546875,0.0007831523544155061,-0.00215309695340693,-0.002075962023809552
1772457159636520700,4.492520751953125,-0.0014258145820349455,-0.0015135824214667082,0.000949817942455411
1772457159646539800,4.502539794921875,0.00028260331600904465,-0.0032792582642287016,0.00047337840078398585
1772457159656557600,4.5125576171875,-0.0008364928653463721,0.001199803315103054,0.0014625496696680784
1772457159666576600,4.52257666015625,0.0010540852090343833,-0.003104663919657469,0.001433787401765585
1772457159676594700,4.5325947265625,-0.0025325953029096127,0.00030129076912999153,-0.003926398232579231
1772457159686612500,4.542612548828125,0.00011325511150062084,0.002315972000360489,-0.0019215706270188093
1772457159696631600,4.552631591796875,0.0015474270330742002,-0.0003540613688528538,-0.0003850456851068884
1772457159706649600,4.562649658203125,-0.001520001795142889,-0.00018894532695412636,-0.00033737512421794236
1772457159716668700,4.572668701171875,-0.00014325533993542194,0.00133114168420434,0.0005986068863421679
1772457159726686700,4.582686767578125,-0.00037361879367381334,-0.0004598340019583702,-0.0009518854785710573
1772457159736704500,4.59270458984375,0.00005129375495016575,-0.0013298029080033302,0.0002704397193156183
1772457159746723600,4.6027236328125,-0.0015846861060708761,0.0007003247737884521,0.003011897671967745
1772457159756742000,4.612741943359375,-0.00020653160754591227,0.001165417954325676,-0.00253767310641706
1772457159766760700,4.6227607421875,-0.001202287501655519,0.0005989633500576019,0.0004975314950570464
1772457159776778800,4.63277880859375,0.0017537532839924097,-0.0003055492416024208,0.0008001093519851565
1772457159786796500,4.642796630859375,-0.0017669457010924816,0.0012366874143481255,0.0004997047362849116
1772457159796815600,4.652815673828125,-0.0010726188775151968,-0.0011951448395848274,-0.0007005267543718219
1772457159806833700,4.662833740234375,0.000842992914840579,-0.0006505283527076244,0.0008275951258838177
1772457159816852500,4.6728525390625,-0.0011462352704256773,0.0010812459513545036,-0.00007854803698137403
1772457159826870800,4.682870849609375,-0.001459689112380147,-0.00026152003556489944,0.003095407271757722
1772457159836888600,4.692888671875,-0.00032991846092045307,0.001011890359222889,0.0003904514596797526
1772457159846907600,4.70290771484375,-0.0004484291421249509,-0.0004280810244381428,0.00048659159801900387
1772457159856925400,4.712925537109375,-0.00042691431008279324,0.0015319930389523506,0.0013680561678484082
1772457159866944500,4.722944580078125,-0.0004471542779356241,-0.003727484028786421,0.0013717846013605595
1772457159876962600,4.732962646484375,-0.003009028732776642,-0.0019257233943790197,-0.0008819932700134814
1772457159886980600,4.742980712890625,-0.0007810284150764346,-0.0026759356260299683,0.0018634595908224583
1772457159896999700,4.752999755859375,-0.0005570517387241125,-0.00043454021215438843,0.0009727259166538715
1772457159907017500,4.763017578125,0.0000040762824937701225,0.0027860202826559544,-0.0020169387571513653
1772457159917036500,4.77303662109375,0.0004787336802110076,-0.002428503939881921,0.0008058484527282417
1772457159927054600,4.7830546875,-0.0017790942220017314,-0.0011464583221822977,-0.0000993599824141711
1772457159937072600,4.79307275390625,0.00004193955101072788,-0.0013206687290221453,-0.0009721441892907023
1772457159947091500,4.803091552734375,0.00012529641389846802,0.00032223528251051903,0.0017032674513757229
1772457159957109500,4.813109619140625,0.0008917446248233318,-0.0010800417512655258,-0.000024669920094311237
1772457159967128600,4.823128662109375,0.0024731296580284834,-0.0007048023398965597,-0.0014888758305460215
1772457159977146600,4.833146728515625,-0.0004445125814527273,0.00003595324233174324,-0.001056972425431013
1772457159987164400,4.843164306640625,-0.00012013956438750029,-0.0004998745862394571,-0.00013631771435029805
1772457159997183500,4.85318359375,0.00038740376476198435,0.0011195032857358456,0.0016120796790346503
1772457160007201800,4.863201904296875,-0.000024054665118455887,-0.00031141331419348717,0.001819007215090096
1772457160017220600,4.873220703125,0.0003447671188041568,-0.00048221368342638016,-0.0005632658721879125
1772457160027238700,4.88323876953125,0.00015408475883305073,-0.0014236411079764366,-0.0002484802098479122
1772457160037256400,4.89325634765625,0.0017398251220583916,-0.000542965717613697,-0.00022297550458461046
1772457160047275500,4.903275634765625,0.0009430072968825698,-0.0003717245999723673,0.0020351186394691467
1772457160057293600,4.91329345703125,-0.0012341761030256748,0.00031480053439736366,0.0005820953520014882
1772457160067312400,4.9233125,0.0003842267906293273,0.0014860588125884533,-0.000352674163877964
1772457160077330700,4.93333056640625,0.0003839613636955619,-0.0007979595102369785,0.0005122305592522025
1772457160087348500,4.943348388671875,-0.0013162007089704275,0.0010785036720335484,0.0017980046104639769
1772457160097367600,4.953367431640625,-0.000489062862470746,-0.0011208637151867151,-0.00043581961654126644
1772457160107385600,4.963385498046875,0.0003863181918859482,-0.0009070117957890034,-0.0010110624134540558
1772457160117404400,4.973404296875,0.0024630092084407806,-0.0011140024289488792,-0.0015361113473773003
1772457160127422500,4.98342236328125,-0.000051014707423746586,-0.0005494120996445417,0.0010844391072168946
1772457160137440800,4.993440673828125,-0.0004353201948106289,-0.00023957854136824608,0.000015735829947516322
1772457160147459600,5.00345947265625,0.001804131898097694,0.0006999848410487175,-0.0010647085728123784
1772457160157477600,5.0134775390625,-0.0019503553630784154,-0.0023341383785009384,-0.0004659672558773309
1772457160167496700,5.02349658203125,0.0016153508331626654,0.000008644070476293564,-0.001199668156914413
1772457160177514500,5.033514404296875,0.00007598334923386574,0.0012333919294178486,0.0000762555719120428
1772457160187532500,5.043532470703125,0.0007763946778140962,-0.00032082898542284966,0.000027786038117483258
1772457160197551600,5.053551513671875,-0.0008273929124698043,0.0015186062082648277,0.0010847910307347775
1772457160207569700,5.063569580078125,-0.0011075573274865746,-0.00037250458262860775,-0.0017232461832463741
1772457160217588700,5.073588623046875,0.0017535006627440453,0.00011317571625113487,-0.0006345509318634868
1772457160227606500,5.0836064453125,0.000148946070112288,-0.0012394438963383436,0.00028929964173585176
1772457160237624600,5.09362451171875,-0.0017251191893592477,-0.00001180265098810196,-0.00046825865865685046
1772457160247643400,5.103643310546875,0.0027047828771173954,0.000800195150077343,0.0017996893730014563
1772457160257661700,5.11366162109375,0.00045225751819089055,0.0020469562150537968,-0.0010249429615214467
1772457160267680800,5.1236806640625,0.0011345593957230449,0.00036570243537425995,-0.0017498554661870003
1772457160277698600,5.133698486328125,0.0005708338576368988,-0.0007101122755557299,-0.000623185362201184
1772457160287716600,5.143716552734375,-0.001067276461981237,-0.0011452729813754559,0.000888158509042114
1772457160297735400,5.1537353515625,0.0019073921721428633,0.00006550969555974007,-0.0010370503878220916
1772457160307753500,5.16375341796875,0.0017193729290738702,-0.00018935510888695717,0.00004579086089506745
1772457160317772500,5.1737724609375,-0.0006133831338956952,0.0013493038713932037,0.0012164388317614794
1772457160327790600,5.18379052734375,0.001267074840143323,-0.00048481510020792484,-0.002830500714480877
1772457160337808600,5.19380859375,0.00017859903164207935,-0.001286446349695325,-0.0018655703170225024
1772457160347827700,5.20382763671875,0.00007606740109622478,-0.00048669916577637196,-0.0003896465350408107
1772457160357845500,5.213845458984375,0.00037036335561424494,-0.001313358312472701,-0.001912676147185266
1772457160367864600,5.223864501953125,0.000014831312000751495,-0.0002816496416926384,0.0007004176150076091
1772457160377882400,5.23388232421875,0.0005668776575475931,-0.0013880378101021051,0.000023814820451661944
1772457160387900700,5.243900634765625,0.0016824757913127542,-0.0005712462589144707,0.001376700703985989
1772457160397919700,5.253919677734375,0.0004040221683681011,0.000052065588533878326,-0.0004703853337559849
1772457160407937500,5.2639375,-0.001455663237720728,0.00017217407003045082,-0.00029008937417529523
1772457160417956600,5.27395654296875,-0.0008862219983711839,-0.002797714900225401,0.0006730355089530349
1772457160427974400,5.283974365234375,0.0009367117891088128,0.0023413868620991707,0.002458685077726841
1772457160437993500,5.293993408203125,-0.0008999550482258201,0.002517365850508213,0.0013562769163399935
1772457160448011500,5.304011474609375,-0.0005651956889778376,-0.0008451414760202169,-0.000347080931533128
1772457160458029600,5.314029541015625,0.0016718745464459062,0.00047532375901937485,-0.0010272071231156588
1772457160468048600,5.324048583984375,-0.0022996976040303707,0.0021536475978791714,-0.0016005856450647116
1772457160478066700,5.334066650390625,-0.0008121239952743053,0.00004608789458870888,-0.0006683271494694054
1772457160488084500,5.34408447265625,-0.0002768287668004632,-0.0008420762605965137,0.0016406334470957518
1772457160498103600,5.354103515625,-0.0018993208650499582,0.0021438822150230408,-0.0008055747020989656
1772457160508121600,5.36412158203125,0.001659461297094822,-0.00024736998602747917,0.00007007265230640769
1772457160518140700,5.374140625,0.00040410488145425916,0.0009635156020522118,-0.001266064471565187
1772457160528158700,5.38415869140625,-0.0019871473778039217,-0.0013161504175513983,0.0011616731062531471
1772457160538177500,5.394177490234375,-0.0012034006649628282,-0.00005579274147748947,0.00017633786774240434
1772457160548195600,5.404195556640625,-0.0007599844830110669,0.0020193420350551605,-0.001578685361891985
1772457160558213400,5.41421337890625,0.0014717584708705544,-0.0031910217367112637,0.002652184572070837
1772457160568232400,5.424232421875,-0.0008694265270605683,0.0012633814476430416,-0.0005715718725696206
1772457160578250800,5.434250732421875,0.00010831118561327457,-0.0002941903658211231,-0.0020694478880614042
1772457160588269600,5.44426953125,0.0003533220151439309,0.0006562918424606323,-0.0021091289818286896
1772457160598287600,5.45428759765625,-0.001777906552888453,-0.001643884927034378,0.0002935943193733692
1772457160608305400,5.464305419921875,0.00012359046377241611,-0.0025189996231347322,0.0007399400928989053
1772457160618324500,5.474324462890625,0.0010114320321008563,-0.0014570837374776602,-0.00022006628569215536
1772457160628342500,5.484342529296875,-0.001913251355290413,0.0004444131627678871,0.0008968634647317231
1772457160638361300,5.494361328125,-0.0010545669356361032,-0.0011366098187863827,-0.00023294921265915036
1772457160648379600,5.504379638671875,-0.0007938436465337873,0.0007398533634841442,0.0002581377048045397
1772457160658397700,5.514397705078125,0.0009289023000746965,-0.001995943719521165,0.0002134616079274565
1772457160668416500,5.52441650390625,-0.001458355225622654,0.0022062580101191998,-0.0004118485958315432
1772457160678434600,5.5344345703125,0.000426004349719733,0.0007059820927679539,0.00032268677023239434
1772457160688453600,5.54445361328125,0.0008156248368322849,0.002238098531961441,0.0029094151686877012
1772457160698471400,5.554471435546875,-0.00246987771242857,-0.0018179577309638262,-0.0009462013258598745
1772457160708489700,5.56448974609375,-0.0027700159698724747,-0.00030341814272105694,-0.0016466127708554268
1772457160718508500,5.574508544921875,-0.0001378386514261365,0.0002735704183578491,0.001684841699898243
1772457160728526600,5.584526611328125,0.0014768359251320362,0.0024911845102906227,0.001673656515777111
1772457160738545700,5.594545654296875,-0.0010936545440927148,0.0003993455320596695,0.001228884793817997
1772457160748563500,5.6045634765625,0.0006235517212189734,0.00037164846435189247,-0.00018738434300757945
1772457160758581800,5.614581787109375,0.0006190912099555135,-0.00174513622187078,0.00112373277079314
1772457160768600600,5.6246005859375,-0.0011361981742084026,0.001324156764894724,-0.0007085220422595739
1772457160778618600,5.63461865234375,0.0002579878782853484,-0.00033461442217230797,0.00004849742981605232
1772457160788637700,5.6446376953125,-0.0003444192698225379,-0.0009798984974622726,0.00104025867767632
1772457160798655500,5.654655517578125,0.0014265287900343537,0.00027510663494467735,-0.0016161948442459106
1772457160808673500,5.664673583984375,-0.00023182155564427376,0.000564059242606163,0.001268008491024375
1772457160818692600,5.674692626953125,-0.0016300578135997057,-0.0006272890605032444,-0.0004294885147828609
1772457160828710700,5.684710693359375,0.00034227920696139336,0.0010507688857614994,0.0009785247966647148
1772457160838729700,5.694729736328125,-0.0011859135702252388,0.0013049021363258362,-0.002210188191384077
1772457160848747500,5.70474755859375,-0.002236797008663416,0.0017879996448755264,-0.0021460060961544514
1772457160858765600,5.714765625,-0.0004884550580754876,0.001557166688144207,0.00010100903455168009
1772457160868784600,5.72478466796875,0.00003751926124095917,0.0007776594720780849,-0.0002774261520244181
1772457160878802400,5.734802490234375,0.0005736860330216587,-0.0006479078438133001,0.00025002643815241754
1772457160888821500,5.744821533203125,0.0008421326638199389,0.001054384745657444,0.00001646720920689404
1772457160898839600,5.754839599609375,-0.00034617807250469923,0.0011935178190469742,0.0018186282832175493
1772457160908857600,5.764857666015625,0.0005840641097165644,0.0004033581353724003,-0.0007880738121457398
1772457160918876700,5.774876708984375,0.00010854285210371017,-0.0005095333326607943,-0.0017338014440611005
1772457160928894500,5.78489453125,0.0008174763061106205,-0.0008120685815811157,-0.0009620173368602991
1772457160938913500,5.79491357421875,0.0010099869687110186,-0.00033448031172156334,-0.0010077470215037465
1772457160948931300,5.804931396484375,-0.0013426495715975761,0.0003459569998085499,-0.0021614283323287964
1772457160958949600,5.81494970703125,0.0015992217231541872,0.0027304119430482388,-0.002277651336044073
1772457160968968700,5.82496875,0.001789105124771595,-0.00048322463408112526,0.00008483865531161427
1772457160978986500,5.834986572265625,0.001683242036961019,-0.0006996220909059048,-0.0020145706366747618
1772457160989005600,5.845005615234375,0.0016315766843035817,0.00009266845881938934,-0.0032207162585109472
1772457160999023600,5.855023681640625,0.0004754075198434293,-0.0007298190612345934,0.000028743990696966648
1772457161009041700,5.865041748046875,0.0006575677543878555,-0.0008456665091216564,0.0004652360803447664
1772457161019060700,5.875060791015625,-0.000972577603533864,-0.000310415867716074,-0.00027625911752693355
1772457161029078500,5.88507861328125,-0.0009552671108394861,0.0008390042930841446,-0.00011833367170765996
1772457161039097600,5.89509765625,-0.0012679892824962735,0.0011439644731581211,0.00016881529882084578
1772457161049115600,5.90511572265625,0.0012348494492471218,0.00005473196506500244,0.0009227561531588435
1772457161059133400,5.915133544921875,0.0002621440216898918,-0.0026694489642977715,0.002937213284894824
1772457161069152500,5.925152587890625,0.001818495336920023,-0.0015866076573729515,0.001613355940207839
1772457161079170600,5.935170654296875,-0.00088614656124264,0.000421769917011261,0.0014678598381578922
1772457161089189600,5.945189697265625,-0.001162582659162581,-0.0021769427694380283,0.0004087206907570362
1772457161099207700,5.955207763671875,0.000032853567972779274,-0.00038412120193243027,0.000105718441773206
1772457161109225500,5.9652255859375,-0.001612979918718338,0.0006893989630043507,-0.00011825340334326029
1772457161119244500,5.97524462890625,-0.000060783117078244686,-0.0015029320493340492,0.001493373652920127
1772457161129262600,5.9852626953125,-0.001424321555532515,0.0019410676322877407,-0.0007013374124653637
1772457161139281400,5.995281494140625,0.0004466545069590211,-0.002468755003064871,0.0006267573917284608
1772457161149299700,6.0052998046875,-0.0010993105825036764,0.0001778942532837391,-0.003129897639155388
1772457161159317500,6.0153173828125,-0.0016919883200898767,0.0011943313293159008,-0.003276163712143898
1772457161169336600,6.025336669921875,-0.000988647690974176,0.001394068356603384,0.00046797440154477954
1772457161179354600,6.035354736328125,-0.002066228538751602,0.002018882427364588,-0.0010270216735079885
1772457161189373400,6.04537353515625,-0.002164233010262251,0.0008960934355854988,-0.0018360899994149804
1772457161199391500,6.0553916015625,0.000916255172342062,-0.000007762107998132706,-0.0006150329718366265
1772457161209409500,6.065409423828125,0.00012582901399582624,0.0004841238260269165,0.002582358196377754
1772457161219428600,6.0754287109375,-0.0008537843823432922,-0.00123344617895782,-0.0029613198712468147
1772457161229446700,6.08544677734375,-0.0023121314588934183,-0.00022490695118904114,-0.0006776592927053571
1772457161239465500,6.095465576171875,0.0006026329938322306,-0.0007432661950588226,-0.00005543918814510107
1772457161249483500,6.1054833984375,-0.0010932680452242494,-0.00012461375445127487,-0.00015264455578289926
1772457161259501600,6.11550146484375,0.0004602761473506689,-0.00029880646616220474,-0.0008586494368501008
1772457161269520600,6.125520751953125,0.0005636067944578826,-0.0012679307255893946,-0.00012468223576433957
1772457161279538700,6.13553857421875,0.0002704230137169361,-0.0005354133900254965,-0.00036059567355550826
1772457161289557500,6.1455576171875,0.00185873219743371,-0.002646501176059246,0.0013345064362511039
1772457161299575600,6.155575439453125,-0.002358087571337819,-0.0015447717159986496,-0.0007857537129893899
1772457161309594600,6.1655947265625,-0.0016342403832823038,-0.0012001586146652699,0.000039826176362112164
1772457161319612400,6.1756123046875,0.0002644043415784836,0.0003270055167376995,-0.0022483617067337036
1772457161329631500,6.185631591796875,-0.0015124568017199636,-0.00041095633059740067,0.0016941820504143834
1772457161339649800,6.19564990234375,0.0011747546959668398,0.00031178025528788567,-0.00003144191578030586
1772457161349667600,6.20566748046875,-0.00002553197555243969,-0.0019774732645601034,0.00013287512410897762
1772457161359686700,6.215686767578125,-0.0009319557575508952,0.0014646593481302261,0.00041442946530878544
1772457161369704400,6.225704345703125,0.000023053842596709728,-0.001442713662981987,-0.0010862617054954171
1772457161379723500,6.2357236328125,-0.001490966067649424,0.0007358058355748653,-0.0004436573653947562
1772457161389741600,6.245741455078125,0.0003788393223658204,-0.0009217455517500639,-0.00031236352515406907
1772457161399759600,6.255759521484375,0.001432211953215301,-0.0033624893985688686,0.0012299978407099843
1772457161409778700,6.26577880859375,-0.0002016373910009861,0.00040668249130249023,-0.00003713421756401658
1772457161419796500,6.27579638671875,0.0008550430648028851,-0.001004943624138832,0.00037642003735527396
1772457161429815600,6.285815673828125,0.0015144416829571128,0.0009388974867761135,-0.0002012196055147797
1772457161439833600,6.29583349609375,-0.000723229837603867,0.00032883696258068085,-0.0002034213102888316
1772457161449851400,6.305851318359375,-0.0033696130849421024,0.0010681306011974812,0.00008127062756102532
1772457161459870500,6.315870361328125,-0.0019704694859683514,-0.0002764021046459675,0.001495540258474648
1772457161469888500,6.325888427734375,-0.0008032057667151093,-0.0007957187481224537,0.0020947514567524195
1772457161479907600,6.335907470703125,-0.00017623754683881998,-0.0009273448958992958,-0.0011286870576441288
1772457161489925600,6.345925537109375,-0.0002420175587758422,-0.00018964940682053566,0.0015824108850210905
1772457161499943400,6.355943359375,-0.0008664957713335752,-0.0005764570087194443,-0.0007548321736976504
1772457161509962500,6.36596240234375,0.0005351259023882449,0.000037667807191610336,0.0007003190694376826
1772457161519980500,6.37598046875,0.00038249162025749683,-0.0006688286084681749,0.0004151305474806577
1772457161529999600,6.38599951171875,-0.000791696016676724,-0.00045550940558314323,-0.001019514282234013
1772457161540017700,6.396017578125,-0.0006225947290658951,0.001028920989483595,0.0010390076786279678
1772457161550035500,6.406035400390625,-0.0003253859467804432,0.0007399679161608219,-0.0023551909253001213
1772457161560054500,6.416054443359375,0.0009273036266677082,-0.0026644142344594,0.0016665119910612702
1772457161570072600,6.426072509765625,-0.0005092055071145296,0.001082653645426035,-0.000206755445105955
1772457161580091400,6.43609130859375,0.0005344685050658882,-0.002329551614820957,-0.001996820094063878
1772457161590109700,6.446109619140625,0.001304388395510614,0.0004049823619425297,0.00004688973422162235
1772457161600127500,6.45612744140625,-0.000141419586725533,0.002090181689709425,-0.0003731987380888313
1772457161610146600,6.466146484375,0.0012138630263507366,0.0005532712675631046,0.0016755710821598768
1772457161620164600,6.47616455078125,0.0012839800911024213,-0.0004417926538735628,-0.0009992627892643213
1772457161630183400,6.486183349609375,0.001773735391907394,-0.0008748224936425686,0.0004633452626876533
1772457161640201500,6.496201416015625,0.001077167922630906,0.002098077442497015,-0.0012475866824388504
1772457161650219800,6.5062197265625,-0.000481846509501338,0.0014328202232718468,-0.0018470643553882837
1772457161660238600,6.516238525390625,0.0018215295858681202,-0.0005759799387305975,0.00008587914635427296
1772457161670256600,6.526256591796875,0.0004574584309011698,0.0010959524661302567,-0.0022680889815092087
1772457161680275700,6.536275634765625,-0.0007989918813109398,-0.0006095177959650755,-0.0014779726043343544
1772457161690293500,6.54629345703125,-0.002592897042632103,0.0018509766086935997,-0.0018231181893497705
1772457161700311600,6.5563115234375,-0.0003009868087247014,0.0022880551405251026,0.0006443470483645797
1772457161710330400,6.566330322265625,0.00005587679333984852,-0.0012169310357421637,-0.0006233175517991185
1772457161720348700,6.5763486328125,0.0013566442066803575,-0.00045870733447372913,-0.0010038083419203758
1772457161730367700,6.58636767578125,0.0010623648995533586,0.00027499347925186157,0.00030353741021826863
1772457161740385500,6.596385498046875,0.001265698461793363,0.00019110459834337234,-0.0017079382669180632
1772457161750403600,6.606403564453125,-0.0002728096442297101,0.0007612872868776321,-0.0011049986351281404
1772457161760422400,6.61642236328125,0.0014203737955540419,-0.0020675461273640394,-0.0005296934396028519
1772457161770440700,6.626440673828125,-0.0002640755847096443,0.0003993399441242218,0.004095418378710747
1772457161780459500,6.63645947265625,0.00027128751389682293,0.00028393929824233055,-0.0009812283096835017
1772457161790477600,6.6464775390625,0.0014651826350018382,-0.0004550877492874861,-0.0011479422682896256
1772457161800495600,6.65649560546875,0.0026797703467309475,-0.002848696894943714,0.0011233373079448938
1772457161810514400,6.666514404296875,-0.00019617739599198103,-0.0004912666045129299,0.0005456975777633488
1772457161820532500,6.676532470703125,-0.0005435118218883872,0.0006058434955775738,-0.0005716521991416812
1772457161830551600,6.686551513671875,0.0005414601182565093,-0.0013811411336064339,-0.001513878465630114
1772457161840569900,6.69656982421875,-0.002119119046255946,-0.0012710131704807281,-0.001062248251400888
1772457161850587600,6.706587646484375,0.0002982321893796325,-0.001565026119351387,0.000416338793002069
1772457161860606700,6.716606689453125,0.00025482603814452887,0.0014106221497058868,-0.0019048660760745406
1772457161870624500,6.72662451171875,-0.0009595754090696573,0.0025752224028110504,0.00023471747408621013
1772457161880643600,6.7366435546875,0.000051956623792648315,0.0013545723631978035,0.00009608374966774136
1772457161890661600,6.74666162109375,-0.00033366901334375143,-0.0015879543498158455,0.00036479669506661594
1772457161900679700,6.7566796875,0.0027453084476292133,-0.0005528058391064405,0.0007387731457129121
1772457161910698800,6.76669873046875,-0.00050135119818151,0.0013809152878820896,0.0007845795480534434
1772457161920716800,6.776716796875,0.0016553453169763088,-0.000828995369374752,-0.0001660910784266889
1772457161930735600,6.786735595703125,0.0009914193069562316,-0.0011467104777693748,-0.0009615772869437933
1772457161940753700,6.796753662109375,-0.0013619549572467804,0.0013491073623299599,-0.002540087793022394
1772457161950772700,6.806772705078125,-0.0009212018921971321,-0.002458414062857628,-0.001099583925679326
1772457161960790500,6.81679052734375,0.00017461238894611597,-0.002554746810346842,-0.0002793568419292569
1772457161970808800,6.826808837890625,-0.0002528249751776457,0.0011859294027090073,-0.005616331472992897
1772457161980827600,6.83682763671875,0.002147295279428363,-0.00007052905857563019,-0.000002119573764503002
1772457161990845700,6.846845703125,0.0005342186195775867,-0.0004955693148076534,-0.0012191841378808022
1772457162000863500,6.856863525390625,0.0005313464789651334,-0.0009946608915925026,0.0024174139834940434
1772457162010882600,6.866882568359375,0.001342279021628201,0.0011539775878190994,0.001725791022181511
1772457162020900600,6.876900634765625,-0.00010290788486599922,0.001320408657193184,-0.0018351109465584159
1772457162030919400,6.88691943359375,0.00041694112587720156,-0.002264738781377673,0.0010751914232969284
1772457162040937700,6.896937744140625,-0.0003740041283890605,-0.0013304497115314007,0.0003553780843503773
1772457162050956800,6.906956787109375,0.0005967180477455258,0.00003255624324083328,0.00042781606316566467
1772457162060974600,6.916974609375,0.00025512510910630226,-0.002630383474752307,-0.0009820107370615005
1772457162070992600,6.92699267578125,0.0015025497414171696,0.0010945801623165607,-0.0005484480643644929
1772457162081011500,6.937011474609375,-0.0007979340152814984,-0.0009080753661692142,0.0003243338724132627
1772457162091029800,6.94702978515625,-0.0014791706344112754,0.0005566631443798542,-0.00045703756040893495
1772457162101048800,6.957048828125,0.000027320696972310543,-0.0008533610962331295,-0.0000715147762093693
1772457162111066600,6.967066650390625,-0.0002547081094235182,0.0000630323775112629,0.0017998884432017803
1772457162121084700,6.977084716796875,0.00010726740583777428,0.00004222523421049118,-0.00008834429900161922
1772457162131103700,6.987103759765625,-0.0014064733404666185,0.000104543287307024,-0.0022590868175029755
1772457162141121500,6.99712158203125,-0.0006706340936943889,-0.00132906180806458,-0.0015407237224280834
1772457162151140600,7.007140625,-0.0018711871234700084,-0.0003333059139549732,0.0014430818846449256
1772457162161158700,7.01715869140625,0.0019833839032799006,-0.000614669406786561,-0.0006908117211423814
1772457162171176700,7.0271767578125,-0.0024254792369902134,0.0000987914390861988,0.00005700386827811599
1772457162181195800,7.03719580078125,0.001045712037011981,-0.0011103765573352575,-0.0020411366131156683
1772457162191213600,7.047213623046875,-0.0011884139385074377,0.00019004521891474724,-0.0010400543687865138
1772457162201232600,7.057232666015625,-0.0008602438028901815,0.001168509479612112,0.0004913908196613193
1772457162211250400,7.06725048828125,0.002175759756937623,-0.0015596325974911451,-0.0019083835650235415
1772457162221268700,7.077268798828125,-0.0013068346306681633,-0.0014972772914916277,0.002631418639793992
1772457162231287800,7.087287841796875,0.00020717247389256954,0.0011749383993446827,0.0007280574645847082
1772457162241305600,7.0973056640625,-0.0009094123961403966,-0.001471703639253974,0.0003664809628389776
1772457162251324700,7.10732470703125,-0.0009576155571267009,0.0010234122164547443,0.0004929811111651361
1772457162261342700,7.1173427734375,-0.0014872458996251225,-0.0019767635967582464,-0.002155944239348173
1772457162271360500,7.127360595703125,0.0005330282147042453,-0.002183957491070032,0.0008321225177496672
1772457162281379600,7.137379638671875,0.0006169189582578838,-0.0009791851043701172,0.000498854904435575
1772457162291397600,7.147397705078125,-0.0017642133170738816,-0.00031712325289845467,-0.00006200681673362851
1772457162301416700,7.157416748046875,0.0005961901042610407,-0.001589583931490779,0.0003276967036072165
1772457162311434800,7.167434814453125,-0.0013862669002264738,0.0010296348482370377,-0.0022915222216397524
1772457162321452500,7.17745263671875,0.0009203372173942626,-0.001012727851048112,0.0018754920456558466
1772457162331471600,7.1874716796875,0.0008926403825171292,-0.0008116592653095722,0.002995617687702179
1772457162341489700,7.19748974609375,-0.00019753933884203434,0.0004492434673011303,-0.0012323955306783319
1772457162351508700,7.2075087890625,0.0014144720043987036,-0.0020621176809072495,-0.0020180281717330217
1772457162361526800,7.21752685546875,-0.00162606337107718,-0.000049089547246694565,-0.00026335398433730006
1772457162371544600,7.227544677734375,-0.0007645308505743742,0.00003480026498436928,-0.0007935892790555954
1772457162381563600,7.237563720703125,-0.0006139917531982064,0.00043614068999886513,0.000721565040294081
1772457162391581400,7.24758154296875,0.0005601959419436753,0.0008238968439400196,-0.0009498349390923977
1772457162401600500,7.2576005859375,-0.00024343072436749935,0.000509058590978384,0.0012321651447564363
1772457162411618800,7.267618896484375,-0.0007209356408566236,-0.0004803056363016367,-0.00039103158633224666
1772457162421636600,7.27763671875,0.001782003790140152,-0.0009989480022341013,-0.0006289543234743178
1772457162431655700,7.28765576171875,0.00021207029931247234,0.0005323695950210094,0.0016081009525805712
1772457162441673700,7.297673828125,-0.00011235370766371489,-0.0003698403015732765,-0.0009659965289756656
1772457162451692500,7.307692626953125,0.0020266971550881863,-0.0011075360234826803,-0.0008341700304299593
1772457162461710600,7.317710693359375,0.0017939246026799083,-0.00032461388036608696,0.0005968341138213873
1772457162471728600,7.327728759765625,-0.0012814938090741634,-0.002663401886820793,-0.000659378943964839
1772457162481747700,7.337747802734375,-0.0005986656760796905,-0.0006433697417378426,0.0005057335365563631
1772457162491765800,7.347765869140625,0.001375003019347787,-0.001218878896906972,0.0008269107202067971
1772457162501784600,7.35778466796875,0.000697515846695751,-0.003203408792614937,-0.0008362710941582918
1772457162511802600,7.367802734375,0.00042667239904403687,0.0006919968873262405,0.0011493817437440157
1772457162521820700,7.377820556640625,0.0015100756427273154,0.001595283392816782,-0.0015648608095943928
1772457162531839500,7.387839599609375,-0.0007861017948016524,-0.0004409695975482464,0.0010788592044264078
1772457162541857800,7.39785791015625,0.0012810188345611095,0.0000054193660616874695,-0.00103943410795182
1772457162551876600,7.407876708984375,0.0010184311540797353,0.00035429326817393303,-0.001788847497664392
1772457162561894700,7.417894775390625,0.0004947786219418049,0.000634507741779089,0.0016136652557179332
1772457162571912700,7.42791259765625,0.0007019726326689124,0.0001948196440935135,0.00040618801722303033
1772457162581931500,7.437931640625,0.0009633185109123588,0.001558337826281786,-0.0014767269603908062
1772457162591949800,7.44794970703125,-0.00038983370177447796,-0.0014238699804991484,-0.0006977524026297033
1772457162601968600,7.45796875,0.0007121372036635876,-0.000732955290004611,-0.00009046000195667148
1772457162611986700,7.467986572265625,-0.0020136081147938967,-0.0026179407723248005,0.0007889157859608531
1772457162622004700,7.478004638671875,0.0023495634086430073,0.001214170828461647,0.00018360739341005683
1772457162632023600,7.4880234375,-0.0006179970223456621,-0.0002819932997226715,0.0015295689227059484
1772457162642041600,7.49804150390625,-0.000050978269428014755,-0.0005209359806030989,-0.00021914090029895306
1772457162652060700,7.508060791015625,-0.0008200992597267032,0.001490016933530569,-0.0017523227725178003
1772457162662078700,7.51807861328125,0.0004809877136722207,-0.0002997671253979206,-0.0007105065742507577
1772457162672096800,7.5280966796875,-0.00045298284385353327,0.00006135739386081696,-0.0019595290068536997
1772457162682115600,7.538115478515625,-0.0006710968445986509,0.0012897425331175327,-0.0014549613697454333
1772457162692133600,7.548133544921875,0.0014959173277020454,0.0003914586268365383,-0.0011785251554101706
1772457162702152700,7.558152587890625,0.0003669499419629574,0.0000461493618786335,-0.0009320388198830187
1772457162712170500,7.56817041015625,-0.0014410701114684343,0.0013905130326747894,-0.000995155656710267
1772457162722188800,7.578188720703125,-0.0006499517476186156,0.0008199922740459442,0.003919440321624279
1772457162732207600,7.58820751953125,0.0012467516353353858,-0.00039094709791243076,-0.0007773102261126041
1772457162742225700,7.5982255859375,0.0012248496059328318,-0.000040547922253608704,-0.0012177800526842475
1772457162752244700,7.60824462890625,-0.0010902362409979105,-0.0008317730389535427,-0.0010657135862857103
1772457162762262500,7.618262451171875,0.0007023896323516965,0.0011062747798860073,-0.0026096906512975693
1772457162772280600,7.628280517578125,-0.00016606715507805347,-0.00008469121530652046,0.0015850544441491365
1772457162782299600,7.638299560546875,0.0019897420424968004,0.0012685474939644337,0.0019477418391034007
1772457162792317700,7.648317626953125,-0.001319768140092492,0.0008296584710478783,0.0018468081252649426
1772457162802336800,7.658336669921875,-0.00022823456674814224,0.0010077343322336674,-0.0013747033663094044
1772457162812354600,7.6683544921875,0.0015195980668067932,0.0011707195080816746,0.0026203044690191746
1772457162822372600,7.67837255859375,0.0005291177076287568,0.0026201349683105946,-0.00046460190787911415
1772457162832391000,7.688390869140625,-0.0004450666019693017,-0.00030987500213086605,0.0019090736750513315
1772457162842409200,7.6984091796875,-0.0018355544889345765,-0.000978714320808649,-0.002026582835242152
1772457162852428000,7.708427978515625,-0.001450195093639195,0.0020897798240184784,-0.002740043681114912
1772457162862446000,7.718446044921875,0.00008491764310747385,-0.001259631710126996,0.0014585540629923344
1772457162872464000,7.7284638671875,-0.00037287978921085596,-0.0020133063662797213,0.0027110385708510876
1772457162882483000,7.73848291015625,0.0005123490700498223,-0.00021233316510915756,-0.0008378498605452478
1772457162892501000,7.7485009765625,0.0019651034381240606,-0.0007745265029370785,0.0012609873665496707
1772457162902520000,7.75852001953125,0.00007410882972180843,0.0007478715851902962,0.00047670764615759254
1772457162912538000,7.7685380859375,-0.0003378820838406682,0.0003747623413801193,0.0005504771834239364
1772457162922556000,7.778555908203125,-0.0027799378149211407,0.0006726994179189205,-0.002583053195849061
1772457162932575000,7.788574951171875,0.000021441257558763027,-0.002393397968262434,-0.0009089901577681303
1772457162942593000,7.798593017578125,0.00046063552144914865,0.0009917626157402992,0.000003487250069156289
1772457162952611800,7.80861181640625,0.00016848684754222631,-0.0019062894862145185,0.0007204102003015578
1772457162962630100,7.818630126953125,-0.0011535508092492819,0.0003209831193089485,-0.001843268284574151
1772457162972648200,7.828648193359375,0.00022064032964408398,0.00029088975861668587,-0.0002067556488327682
1772457162982667000,7.8386669921875,0.001131368800997734,-0.001311230007559061,-0.0010779572185128927
1772457162992685000,7.84868505859375,-0.0003631971776485443,0.001060314942151308,0.00025628641014918685
1772457163002704100,7.8587041015625,0.000786859542131424,-0.00007779430598020554,0.0014827318955212831
1772457163012722000,7.868721923828125,-0.0015090516535565257,0.0006572380661964417,-0.0007668401813134551
1772457163022741000,7.878740966796875,-0.0008215075358748436,0.0017109164036810398,-0.0004453308938536793
1772457163032759000,7.888759033203125,0.0003601370844990015,0.0004696170799434185,-0.0012501381570473313
1772457163042777000,7.898777099609375,-0.0022268546745181084,0.0008331970311701298,-0.002511299215257168
1772457163052796200,7.908796142578125,0.0004735908005386591,-0.0018134526908397675,0.0006991414702497423
1772457163062814000,7.91881396484375,0.0007661142153665423,0.00225952360779047,0.0013206938747316599
1772457163072833000,7.9288330078125,-0.0009950341191142797,-0.000021473970264196396,0.003820336889475584
1772457163082850800,7.938850830078125,-0.001427903538569808,0.0008732480928301811,-0.0006951529067009687
1772457163092869000,7.948869140625,-0.00023986725136637688,0.0012836409732699394,0.0003557305026333779
1772457163102888200,7.95888818359375,0.0004815742140635848,0.003749700728803873,0.0012173231225460768
1772457163112906000,7.968906005859375,-0.0014292437117546797,-0.0010048411786556244,0.0012466178741306067
1772457163122925000,7.978925048828125,-0.00007862283382564783,0.0013691643252968788,-0.0006357177626341581
1772457163132942800,7.98894287109375,-0.0001294892281293869,0.0005963146686553955,0.0012399465776979923
1772457163142961200,7.998961181640625,0.0006791073246859014,-0.0007220609113574028,-0.00026546831941232085
1772457163152980000,8.00897998046875,-0.0011707242811098695,-0.001341512193903327,-0.0015842656139284372
1772457163162998000,8.018998046875,-0.0020959004759788513,0.0021433536894619465,-0.0014190691290423274
1772457163173017000,8.02901708984375,-0.0036967266350984573,0.0011963332071900368,0.00007203471614047885
1772457163183035100,8.03903515625,0.0004755728878080845,-0.0013818596489727497,0.0022747404873371124
1772457163193053000,8.049052978515626,-0.0013454967411234975,0.0007244343869388103,0.0001828274253057316
1772457163203072000,8.059072021484376,0.00013056909665465355,-0.0013463622890412807,-0.0016434651333838701
1772457163213090000,8.069090087890626,-0.0011514767538756132,-0.0010297123808413744,0.0008300787303596735
1772457163223109000,8.079109130859376,-0.0009393992368131876,0.0002058674581348896,-0.000041440362110733986
1772457163233127200,8.089127197265626,-0.00003525603096932173,0.0003515421412885189,-0.0004917808691971004
1772457163243145000,8.09914501953125,-0.00009610049892216921,0.0007486878894269466,-0.000824584043584764
1772457163253164000,8.1091640625,-0.0007320634322240949,0.00016146106645464897,-0.0011476255021989346
1772457163263181800,8.119181884765625,-0.0007425283547490835,-0.00042198714800179005,0.0010028415126726031
1772457163273201000,8.129200927734376,-0.0006357356905937195,-0.0014726039953529835,-0.00048133815289475024
1772457163283219200,8.13921923828125,-0.00035387754905968904,0.0011366605758666992,0.0014820345677435398
1772457163293237000,8.149237060546875,-0.0013160776579752564,0.0005246661603450775,-0.0011012316681444645
1772457163303256000,8.159256103515625,-0.001000968157313764,0.0001369202509522438,-0.001609188038855791
1772457163313273900,8.16927392578125,0.0008278245222754776,-0.0007959848735481501,0.00005049395258538425
1772457163323293000,8.17929296875,-0.0016090524150058627,0.0013085110113024712,-0.00030923803569749
1772457163333311000,8.18931103515625,0.0015148355159908533,-0.0014782208018004894,-0.0006594437290914357
1772457163343329000,8.1993291015625,0.0009361151605844498,0.0005029886960983276,-0.00033205474028363824
1772457163353348000,8.20934814453125,-0.002023988403379917,0.0005040541291236877,0.0001718153216643259
1772457163363366100,8.2193662109375,-0.0002750641433522105,0.0013003763742744923,-0.0017266704235225916
1772457163373385000,8.229385009765625,0.00016409112140536308,0.00038371607661247253,-0.001969018252566457
1772457163383403000,8.239403076171875,0.0005227858200669289,-0.000777633860707283,-0.0005275595467537642
1772457163393421000,8.249421142578125,0.001388845848850906,-0.00044953241012990475,-0.00009452953236177564
1772457163403439900,8.25943994140625,0.0014941623667255044,-0.0014117120299488306,0.0015061164740473032
1772457163413458200,8.269458251953125,0.0014134685043245554,-0.0007778797298669815,-0.0007407924858853221
1772457163423477000,8.27947705078125,-0.0007927088299766183,0.00046826619654893875,-0.00008293762221001089
1772457163433495000,8.2894951171875,-0.002345598302781582,0.0016890591941773891,-0.000020619656424969435
1772457163443512800,8.299512939453125,0.0023956322111189365,-0.0009107026271522045,-0.00018812090274877846
1772457163453532000,8.309531982421875,0.0012709794100373983,-0.001194861950352788,0.0012057776330038905
1772457163463550200,8.31955029296875,0.0009786903392523527,0.0017601307481527328,-0.001490264548920095
1772457163473569000,8.329569091796875,0.0009888103231787682,0.0023305797949433327,-0.0017632384551689029
1772457163483587000,8.339587158203125,-0.001674600993283093,0.0013509755954146385,-0.001758732832968235
1772457163493605000,8.349605224609375,-0.0010860423790290952,0.0009408486075699329,-0.0016452823765575886
1772457163503624000,8.3596240234375,-0.000422912766225636,-0.0010435939766466618,0.0009541579056531191
1772457163513642000,8.36964208984375,-0.0015584846260026097,-0.0006467830389738083,0.0004697288968600333
1772457163523661000,8.3796611328125,-0.0004108825232833624,0.0011848686262965202,0.0003044434415642172
1772457163533679000,8.38967919921875,0.0004128331784158945,0.0024733059108257294,-0.000005548499757423997
1772457163543697200,8.399697265625,0.00031665980350226164,-0.0010933252051472664,-0.0001706497569102794
1772457163553716000,8.409716064453125,0.002118021948263049,-0.00023658620193600655,-0.00016425814828835428
1772457163563734000,8.419734130859375,0.0006992610869929194,-0.0021413860376924276,0.0006612828001379967
1772457163573753000,8.429753173828125,-0.0004751930246129632,0.0013263160362839699,-0.002047418151050806
1772457163583771000,8.43977099609375,0.0012834110530093312,-0.0005856365896761417,-0.0020285509526729584
1772457163593789200,8.4497890625,0.001029878156259656,0.0008444809354841709,-0.0011430500308051705
1772457163603808000,8.45980810546875,0.0015443817246705294,0.00009801378473639488,0.0006461188895627856
1772457163613826000,8.469825927734375,-0.0006364808650687337,-0.00040132878348231316,0.0006764789577573538
1772457163623845000,8.47984521484375,0.0023968976456671953,-0.0003916453570127487,0.0009070455562323332
1772457163633863000,8.48986279296875,0.0010458760662004352,0.0019873562268912792,-0.00007938931230455637
1772457163643881000,8.499880859375,0.0008120908169075847,0.002207556739449501,0.0005393361789174378
1772457163653900000,8.509900146484375,0.0004746683407574892,0.0016147373244166374,-0.00006759824464097619
1772457163663918000,8.51991796875,-0.0004689437337219715,0.00016968557611107826,0.00048663682537153363
1772457163673937200,8.529937255859375,-0.00041008787229657173,-0.0011871950700879097,0.0004610704490914941
1772457163683955000,8.539954833984375,0.0002517502289265394,0.0011727353557944298,-0.0003791963099502027
1772457163693973000,8.549972900390625,-0.00018847035244107246,0.0007522222585976124,-0.00027826253790408373
1772457163703992000,8.559991943359375,-0.001432015560567379,0.001333686988800764,-0.0014523231657221913
1772457163714010000,8.570010009765625,0.0015986618818715215,-0.002582225017249584,0.0023554645013064146
1772457163724029200,8.580029296875,-0.001857856521382928,0.0009460281580686569,-0.0015076930867508054
1772457163734047000,8.590046875,-0.00042454316280782223,-0.0015163305215537548,0.0005887472652830184
1772457163744065000,8.60006494140625,0.001580044743604958,-0.0006975841242820024,-0.0024157348088920116
1772457163754084000,8.610083984375,0.0015616689343005419,6.966292858123779e-7,-0.0022093397565186024
1772457163764102000,8.620101806640625,0.002280869521200657,-0.0008416189812123775,0.0005281086778268218
1772457163774121000,8.630120849609375,0.0011647387873381376,0.0010241917334496975,0.0024969836231321096
1772457163784139000,8.640138916015625,-0.00036180473398417234,0.000608399510383606,0.002442281460389495
1772457163794157000,8.650156982421874,0.00022355804685503244,0.001192963682115078,-0.0005481819389387965
1772457163804176100,8.660176025390625,0.0016120272921398282,0.0006241258233785629,-0.0008009084267541766
1772457163814194000,8.67019384765625,-0.0006308868760243058,0.0008459673263132572,-0.0020163750741630793
1772457163824213000,8.680212890625,0.00005306140519678593,-0.0003321447875350714,-0.0014947052113711834
1772457163834231600,8.6902314453125,-0.0018870513886213303,-0.0007989967707544565,0.0019679367542266846
1772457163844249600,8.70024951171875,-0.0004911851137876511,0.0005161100998520851,-0.002271724632009864
1772457163854268700,8.7102685546875,-0.0002879858948290348,0.0005568563938140869,-0.002229646546766162
1772457163864286700,8.72028662109375,0.001102883368730545,0.0005342280492186546,0.0013008741661906242
1772457163874305800,8.730305908203125,0.0006088670343160629,-0.0008303755894303322,-0.0013364541810005903
1772457163884323600,8.740323486328125,-0.0012371891643851995,-0.0030170599929988384,-0.0003532828122843057
1772457163894341600,8.750341552734374,-0.0007439719047397375,0.0004985788837075233,-0.000816672807559371
1772457163904360700,8.760360595703125,-0.0003547819796949625,-0.0016509843990206718,0.0000481450988445431
1772457163914378800,8.770378662109374,0.00023643963504582644,-0.0013407261576503515,-0.00131006701849401
1772457163924397800,8.780397705078125,0.0007705246098339558,0.0012889821082353592,-0.00043524702778086066
1772457163934415600,8.79041552734375,-0.0009890258079394698,0.0006330455653369427,-0.0006355167715810239
1772457163944433700,8.80043359375,-0.00037614209577441216,-0.0021389778703451157,0.0014538330724462867
1772457163954452700,8.81045263671875,-0.0017790952697396278,0.000596088357269764,0.0016061658971011639
1772457163964470500,8.820470458984374,-0.0005202637985348701,-0.0010647575836628675,-0.0016689506592229009
1772457163974489600,8.830489501953124,-0.0018561051692813635,-0.00016301125288009644,-0.0020124982111155987
1772457163984508000,8.8405078125,0.00017149187624454498,-0.0025792066007852554,-0.0019109084969386458
1772457163994525700,8.850525634765624,-0.0008807231206446886,0.002119408454746008,-0.0016861375188454986
1772457164004544800,8.860544677734374,-0.0019696205854415894,0.0013802191242575645,-0.0005198271246626973
1772457164014562600,8.8705625,0.0009878198616206646,0.002588761504739523,0.0009116219589486718
1772457164024581600,8.88058154296875,-0.0018015950918197632,-0.0011642246972769499,0.00044612539932131767
1772457164034599700,8.890599609375,-0.0012164986692368984,0.001162046566605568,-0.0016870666295289993
1772457164044617700,8.90061767578125,-0.0007861140184104443,-0.0004925602115690708,-0.000377956050215289
1772457164054636800,8.91063671875,0.0019758502021431923,-0.0000504753552377224,-0.000019494560547173023
1772457164064654600,8.920654541015624,0.0005835440242663026,0.001182586420327425,0.00010052576544694602
1772457164074673700,8.930673583984374,-0.0005666750948876143,-0.0014198545832186937,-0.000960211327765137
1772457164084691700,8.940691650390624,-0.0007657123496755958,-0.0011275457218289375,-0.000877056154422462
1772457164094709800,8.950709716796876,-0.0004722318844869733,-0.00006228126585483551,0.00009899234282784164
1772457164104728600,8.960728515625,-0.001993879210203886,0.0002961857244372368,0.0005849861772730947
1772457164114747000,8.970746826171874,0.000979540403932333,0.0021572024561464787,-0.0002176905982196331
1772457164124765700,8.980765625,-0.0014462433755397797,0.0004273122176527977,0.0010926997056230903
1772457164134783700,8.99078369140625,0.0014547379687428474,0.0013996325433254242,0.0008008172735571861
1772457164144801500,9.000801513671876,0.0006148384418338537,-0.0010747855994850397,0.0009175791055895388
1772457164154820600,9.010820556640626,0.0005466614384204149,-0.001750695751979947,0.0004970659501850605
1772457164164839000,9.0208388671875,0.0003985201474279165,-0.0014768836554139853,-0.0006355210207402706
1772457164174857700,9.030857666015624,-0.0009266688721254468,0.0014765621162950993,-0.0009212781442329288
1772457164184875800,9.040875732421876,0.0023417635820806026,-0.001647704979404807,0.00007439896580763161
1772457164194893600,9.0508935546875,0.001140677952207625,-0.001522270031273365,0.000027527305064722896
1772457164204912600,9.06091259765625,0.0010153695475310087,0.0015856693498790264,-0.0015245157992467284
1772457164214930700,9.0709306640625,-0.002050993964076042,0.0020226938650012016,-0.0004709692148026079
1772457164224949500,9.080949462890626,0.0012182670179754496,0.001556007657200098,-0.002092923503369093
1772457164234967800,9.0909677734375,0.000037421355955302715,0.0020337789319455624,0.0008695769356563687
1772457164244985600,9.100985595703126,-0.0008696281583979726,0.0014896485954523087,-0.00045516088721342385
1772457164255004700,9.111004638671876,0.0001341173192486167,0.0008062813431024551,0.0008601743611507118
1772457164265022700,9.121022705078126,0.00019520404748618603,0.0013893996365368366,0.0022428694646805525
1772457164275041500,9.13104150390625,-0.00018935638945549726,-0.0010441967751830816,0.00039729883428663015
1772457164285059600,9.1410595703125,0.00012795173097401857,0.002257700078189373,0.0010993105825036764
1772457164295078000,9.151077880859376,0.003169814357534051,-0.0012773796916007996,0.00023032116587273777
1772457164305096700,9.1610966796875,0.0015796110965311527,-0.0014810147695243359,-0.002251615049317479
1772457164315114800,9.17111474609375,-0.0011013930197805166,0.0005107633769512177,0.0009199434425681829
1772457164325133800,9.1811337890625,0.0017261558678001165,-0.0006971573457121849,0.0006393281510099769
1772457164335151600,9.191151611328126,-0.0012826835736632347,0.0000187004916369915,-0.0024595260620117188
1772457164345169700,9.201169677734375,0.0006802011048421264,0.0012543252669274807,-0.0014442676911130548
1772457164355188700,9.211188720703126,0.0007185506401583552,0.0004029129631817341,0.0006148885004222393
1772457164365206800,9.221206787109375,0.0006915756966918707,-0.0020542736165225506,0.0002473692293278873
1772457164375225900,9.231225830078126,-0.0010416095610707998,-0.0014401485677808523,-0.00028712721541523933
1772457164385243600,9.24124365234375,0.0028156626503914595,-0.0013854054268449545,0.0016241299454122782
1772457164395261700,9.25126171875,0.0008204224286600947,0.0007011811248958111,-0.001015595393255353
1772457164405280500,9.261280517578125,0.000702371820807457,-0.002058216370642185,0.0023951001930981874
1772457164415298800,9.271298828125,0.0011401954106986523,-0.0004635155200958252,0.00011143967276439071
1772457164425318000,9.28131787109375,0.0022111679427325726,-0.0008488353341817856,0.0003776815428864211
1772457164435335700,9.291335693359375,0.0014223397010937333,0.00008566770702600479,-0.00009369797771796584
1772457164445354800,9.301354736328125,-0.0011216896818950772,0.0006963321939110756,-0.0017256932333111763
1772457164455372800,9.311372802734375,-0.0014636394334957004,-0.0013420514296740294,-0.0004929160932078958
1772457164465390600,9.321390625,0.0007532747113145888,0.00041099172085523605,0.00007231513154692948
1772457164475409700,9.33140966796875,0.0004049332346767187,-0.00007610069587826729,-0.0018944292096421123
1772457164485427700,9.341427734375,0.0018527720822021365,-0.0015575052239000797,0.0029789016116410494
1772457164495446800,9.35144677734375,0.002784878481179476,-0.00263581913895905,-0.00014738307800143957
1772457164505464800,9.36146484375,-0.0006860013818368316,-0.0015600447077304125,0.0010229647159576416
1772457164515482600,9.371482666015625,-0.0005722843343392015,0.002222176641225815,0.0018322994001209736
1772457164525501700,9.381501708984375,0.0015879179118201137,-0.0009531995747238398,0.001804587198421359
1772457164535519500,9.39151953125,-0.000051524024456739426,0.0009890440851449966,0.0006794016808271408
1772457164545538600,9.40153857421875,-0.0011097714304924011,0.00003264518454670906,-0.0012348117306828499
1772457164555556900,9.411556884765625,-0.0009236163459718227,0.0004760613664984703,0.000903706531971693
1772457164565574700,9.42157470703125,0.0015369056491181254,0.0005825767293572426,-0.0001754388795234263
1772457164575593700,9.43159375,0.000059383921325206757,-0.000003851018846035004,-0.0014297878369688988
1772457164585611500,9.441611572265625,0.0016025337390601635,-0.00027957791462540627,0.0015577131416648626
1772457164595630600,9.451630615234375,-0.0002630106173455715,-0.0012995684519410133,0.0005883225821889937
1772457164605648600,9.461648681640625,0.0006263675168156624,0.00035663507878780365,-0.0009330275934189558
1772457164615666700,9.471666748046875,0.0007531339651905,-0.0009677549824118614,0.00004515147884376347
1772457164625685800,9.481685791015625,0.0013122099917382002,0.00027117878198623657,-0.001126415329053998
1772457164635703800,9.491703857421875,-0.00006171490531414747,-0.0023078264202922583,-0.0005474441568367183
1772457164645722600,9.50172265625,0.001448140130378306,0.0019416548311710358,0.0009154791478067636
1772457164655740700,9.51174072265625,-0.0008909142343327403,0.0016953125596046448,-0.002073919167742133
1772457164665758700,9.5217587890625,-0.00009022746235132217,-0.002855327446013689,-0.0005992100341245532
1772457164675777800,9.53177783203125,-0.00048517435789108276,-0.00018976954743266106,0.00021305406698957086
1772457164685795800,9.5417958984375,0.0008128296467475593,-0.00027728592976927757,0.004044972360134125
1772457164695814700,9.551814697265625,-0.0007602996192872524,-0.0002796831540763378,-0.0016264955047518015
1772457164705832700,9.561832763671875,-0.0001494759926572442,0.00011954270303249359,0.0004042175423819572
1772457164715850500,9.5718505859375,-0.0003846330801025033,-0.00010149972513318062,0.0007008936954662204
1772457164725869600,9.58186962890625,-0.00039937172550708055,0.00233998941257596,-0.0023617136757820845
1772457164735888000,9.591887939453125,-0.00029257882852107286,0.0009418302215635777,-0.0001275878748856485
1772457164745906700,9.60190673828125,-0.0009655843023210764,0.00032927561551332474,-0.00046117138117551804
1772457164755924700,9.6119248046875,0.0008762578363530338,-0.0017964593134820461,0.0014421897940337658
1772457164765942500,9.621942626953125,-0.0003536611329764128,0.0006337109953165054,0.0012372303754091263
1772457164775961600,9.631961669921875,0.001055683707818389,-0.0022150722797960043,0.003107302123680711
1772457164785979600,9.641979736328125,-0.0000921841710805893,0.0004494013264775276,0.0008052228949964046
1772457164795998500,9.65199853515625,-0.0008905997965484858,-0.0009120067115873098,0.00044809296377934515
1772457164806016800,9.662016845703125,0.0007589319720864296,-0.001031551044434309,0.00010978407226502895
1772457164816034800,9.672034912109375,0.00024094711989164352,-0.000803318340331316,0.0007428174722008407
1772457164826053600,9.6820537109375,0.0006425518076866865,-0.000279910396784544,0.0007872558780945837
1772457164836071000,9.69207080078125,-0.0003777050878852606,-0.0001608668826520443,0.001826154999434948
1772457164846089700,9.70208984375,-0.0002354657044634223,-0.0014059743843972683,0.002732963301241398
1772457164856108000,9.71210791015625,0.0009773378260433674,0.0005210889503359795,0.00015102859470061958
1772457164866126000,9.7221259765625,0.0011694917920976877,-0.0007028176914900541,-0.0008043043198995292
1772457164876145000,9.732144775390625,-0.00035064038820564747,-0.0034131165593862534,0.0007975870976224542
1772457164886163000,9.742162841796874,-0.0008657496655359864,0.0014481288380920887,-0.0010491872671991587
1772457164896182000,9.75218212890625,-0.001442324253730476,0.00037247780710458755,0.001995604718104005
1772457164906199800,9.76219970703125,0.0005940941628068686,-0.0017474859487265348,-0.0005906969308853149
1772457164916218000,9.772218017578124,0.0009562841150909662,0.00015720678493380547,0.00018161971820518374
1772457164926237000,9.78223681640625,0.000700552249327302,-0.0006052309181541204,-0.0002626164350658655
1772457164936255000,9.7922548828125,0.0009753904887475073,0.0009298152290284634,-0.0008003086550161242
1772457164946274000,9.802274169921875,0.00017881428357213736,-0.002464541234076023,0.003104749135673046
1772457164956291800,9.812291748046874,-0.0012012356892228127,-0.0003601114731281996,-0.0010748159838840365
1772457164966310100,9.82231005859375,0.0004983750404790044,0.000218905508518219,0.002035715850070119
1772457164976328000,9.832327880859374,0.002014246303588152,-0.0007813780102878809,0.00034700543619692326
1772457164986347000,9.842346923828124,1.9103754311800003e-7,0.0005632671527564526,0.0006876970874145627
1772457164996364800,9.85236474609375,-0.0000573332654312253,-0.001537434058263898,0.0008301762281917036
1772457165006383900,9.8623837890625,-0.0005671874387189746,-0.0010640695691108704,-0.00032413459848612547
1772457165016402000,9.87240185546875,-0.001026582787744701,0.00023155845701694489,-2.7939677238464355e-8
1772457165026420000,9.882419921875,0.00007059215568006039,-0.0015634908340871334,-0.0003212530864402652
1772457165036439000,9.89243896484375,-0.0018098659347742796,0.0008906121365725994,0.0015557429287582636
1772457165046457000,9.90245703125,-0.003764090593904257,-0.0002890815958380699,0.0026931799948215485
1772457165056476000,9.912475830078124,0.00015368557069450617,-0.00026191724464297295,0.00007635794463567436
1772457165066494000,9.922493896484376,-0.0012151639675721526,0.0018187868408858776,0.0010025366209447384
1772457165076513000,9.932512939453124,0.0015103151090443134,0.0003545810468494892,0.0008994723320938647
1772457165086530800,9.94253076171875,0.0016080928035080433,-0.00007146177813410759,-0.0007032562862150371
1772457165096549000,9.952549072265626,0.0015063600149005651,0.00017967447638511658,0.000004079251084476709
1772457165106568000,9.96256787109375,-0.0014752435963600874,0.0008285264484584332,-0.0002077583922073245
1772457165116586000,9.9725859375,0.0008156076073646545,-0.0006865458562970161,0.00033952121157199144
1772457165126603800,9.982603759765626,0.000027874484658241272,0.0019464720971882343,0.0003727816219907254
1772457165136622800,9.992622802734376,0.0003288117004558444,-0.0013076444156467915,0.0027219559997320175
1772457165146641000,10.002640869140626,-0.0008728066459298134,0.0019002091139554977,-0.00023887338466010988
1772457165156660000,10.012659912109376,0.000366362277418375,0.001275431364774704,-0.0009739057859405875
1772457165166678000,10.022677978515626,0.0010890694102272391,-0.002528762212023139,-0.0008671207469888031
1772457165176697000,10.032697021484376,-0.0004925818648189306,-0.0011804038658738136,-0.0001800251193344593
1772457165186715000,10.04271484375,0.000017304671928286552,0.0016061365604400635,0.0012890229700133204
1772457165196733000,10.05273291015625,-0.0013630116591230035,0.00035445066168904305,-0.001615953049622476
1772457165206751700,10.062751708984376,-0.0002053483622148633,0.000529369805008173,0.0008819712093099952
1772457165216770000,10.07277001953125,0.001103861490264535,0.000571714248508215,-0.0004919536295346916
1772457165226788000,10.0827880859375,0.0013116197660565376,0.0023260689340531826,0.00020325809600763023
1772457165236807000,10.092806884765626,0.0029593175277113914,-0.001477457582950592,-0.0010939677013084292
1772457165246825000,10.102824951171876,0.001049957936629653,-0.00253707030788064,0.0006544369971379638
1772457165256844000,10.112843994140626,0.0007341070449911058,-0.0004800446331501007,0.0028848343063145876
1772457165266861800,10.12286181640625,0.00041700596921145916,0.0009720460511744022,-0.0020592976361513138
1772457165276881000,10.132880859375,0.0009413824300281703,0.0018751239404082298,-0.00008669437374919653
1772457165286899000,10.14289892578125,0.0007748374482616782,-0.0007358025759458542,0.0011066363658756018
1772457165296917000,10.1529169921875,0.0011237114667892456,-0.0003033052198588848,-0.0000017712591215968132
1772457165306937000,10.16293701171875,0.0001679344568401575,-0.0014832073356956244,-0.002969250315800309
1772457165316955000,10.172954833984376,-0.000029139569960534573,-0.001874958397820592,0.0004393294802866876
1772457165326973000,10.182972900390626,0.0018738536164164543,-0.002559142652899027,0.0017428640276193619
1772457165336992000,10.192991943359376,-0.0007999599911272526,-0.001197468489408493,-0.0007013852009549737
1772457165347009800,10.203009765625,0.002126898616552353,-0.0008498532697558403,0.0006354816723614931
1772457165357028900,10.21302880859375,-0.0010662314016371965,-0.002285030670464039,-0.00038078054785728455
1772457165367047000,10.223046875,0.0007572070462629199,-0.00029836525209248066,0.0010397261939942837
1772457165377065000,10.23306494140625,0.0004469488048925996,0.0026620044372975826,-0.001297996612265706
1772457165387084000,10.243083984375,-0.000556584564037621,-0.00039032124914228916,-0.0007384708151221275
1772457165397101800,10.253101806640625,0.00012545089703053236,0.0008850665763020515,0.0017278826562687755
1772457165407121000,10.263120849609376,0.000415459624491632,0.0011250153183937073,0.000498131092172116
1772457165417139000,10.273138916015625,0.001465543988160789,-0.00032214634120464325,0.00046058051520958543
1772457165427157000,10.283156982421875,0.0010259926784783602,-0.0010363655164837837,0.0007111395825631917
1772457165437176000,10.293176025390625,0.00024222431238740683,0.0017940420657396317,0.0010618779342621565
1772457165447193900,10.30319384765625,-0.0003411015495657921,0.00035951193422079086,-0.0005900969263166189
1772457165457213000,10.313212890625,0.0017255115089938045,0.0007901452481746674,0.00019660084217321128
1772457165467231000,10.32323095703125,0.0008196873241104186,0.0005740341730415821,0.0015530238160863519
1772457165477249000,10.3332490234375,-0.000012816861271858215,-0.0010020243935286999,-0.000387887965189293
1772457165487268000,10.34326806640625,0.0031773573718965054,0.00011789985001087189,0.0004567811556626111
1772457165497286000,10.353285888671875,-0.00001976743806153536,0.0001445314846932888,0.0023830453865230083
1772457165507305000,10.363304931640625,0.0006562374765053391,-0.001325828954577446,0.0004562579852063209
1772457165517323000,10.373322998046875,0.0009577072924003005,0.001060097012668848,0.0007057961774989963
1772457165527340800,10.3833408203125,-0.0005932131316512823,0.0009322711266577244,-0.0011560058919712901
1772457165537360000,10.39335986328125,-0.000794548075646162,0.0008355984464287758,-0.00043801774154417217
1772457165547378000,10.4033779296875,-0.0009686572011560202,-0.0012147624511271715,0.0000510696554556489
1772457165557397000,10.41339697265625,0.0008926260634325445,0.0010875402949750423,0.0005639945156872272
1772457165567415000,10.4234150390625,0.0028237998485565186,0.0003938637673854828,-0.00008137919940054417
1772457165577432800,10.433432861328125,-0.0009176750900223851,0.0006449995562434196,-0.00008137919940054417
1772457165587452000,10.443451904296875,0.00034428760409355164,-0.0002482072450220585,0.00184614397585392
1772457165597470000,10.453469970703125,-0.00217666057869792,-0.0003174496814608574,0.0006165624945424497
1772457165607488800,10.46348876953125,0.00007047026883810759,-0.003118035616353154,0.0030375260394066572
1772457165617507000,10.473507080078125,0.00037833175156265497,0.0002191714011132717,-0.0003630643477663398
1772457165627524900,10.48352490234375,0.0011452918406575918,0.001051135826855898,0.0008089854381978512
1772457165637544000,10.4935439453125,-0.001811349531635642,0.001310261432081461,-0.0010387157090008259
1772457165647562000,10.50356201171875,0.0005632174434140325,-0.0017703475896269083,0.0003683280083350837
1772457165657580800,10.513580810546875,-0.0014637145213782787,0.001229437068104744,0.0012157459277659655
1772457165667598800,10.523598876953125,-0.0009100433671846986,0.00041837431490421295,0.0003063096955884248
1772457165677617000,10.533616943359375,-0.0012756952783092856,0.0010623265989124775,-0.0007978368666954339
1772457165687636000,10.543635986328125,-0.0006877782288938761,0.0006214254535734653,-0.0010785161284729838
1772457165697654000,10.553654052734375,0.00012848060578107834,-0.00021986709907650948,0.003054710105061531
1772457165707672800,10.5636728515625,0.00016079680062830448,-0.00038226088508963585,-0.001435047248378396
1772457165717691000,10.57369091796875,-0.0014397628838196397,0.0007647625170648098,0.0005066635203547776
1772457165727709000,10.583708984375,0.0005496608791872859,-0.0013352700043469667,0.00009792702621780336
1772457165737728000,10.59372802734375,0.00032329221721738577,0.0009417328983545303,-0.00029382394859567285
1772457165747746000,10.60374609375,0.00033707800321280956,-0.0010582641698420048,0.001385809970088303
1772457165757765000,10.61376513671875,0.00007156084757298231,-0.002343505620956421,-0.0020557930693030357
1772457165767783000,10.623782958984375,-0.0007941913791000843,0.0021578525193035603,0.00062891177367419
1772457165777801000,10.633801025390625,-0.00043519726023077965,0.0005980390124022961,0.0009556816075928509
1772457165787819800,10.64381982421875,-0.002141389064490795,-0.0021236673928797245,-0.0003779668768402189
1772457165797838000,10.653838134765625,0.0003175073070451617,0.000945625826716423,0.0009900989243760705
1772457165807857200,10.663857177734375,0.002030586590990424,-0.0005617004353553057,0.0006103155901655555
1772457165817875000,10.673875,0.0004215046064928174,0.000010879244655370712,0.002132578520104289
1772457165827893000,10.68389306640625,-0.0012566638179123402,0.00009213807061314583,-0.0010516485199332237
1772457165837911800,10.693911865234375,-0.0002593100070953369,-0.0015393146313726902,-0.001761114690452814
1772457165847929900,10.703929931640625,0.0013829527888447046,0.0003347299061715603,0.0004946662811562419
1772457165857949000,10.713948974609375,-0.0007108243880793452,-0.0025646532885730267,0.0034513077698647976
1772457165867967000,10.723967041015625,0.0011855000630021095,-0.0014944749418646097,-0.003182845190167427
1772457165877985000,10.733985107421875,-0.000642227241769433,0.000022195279598236084,0.0003879210853483528
1772457165888003800,10.74400390625,0.0018776572542265058,-0.0003412195947021246,0.0019062227802351117
1772457165898022000,10.75402197265625,0.0014925641007721424,-0.001056278357282281,-0.0015154065331444144
1772457165908041000,10.764041015625,0.001217541634105146,0.0010325913317501545,-0.0005766430404037237
1772457165918058800,10.774058837890625,-0.002265872899442911,0.0007697376422584057,-0.0009100708412006497
1772457165928077000,10.7840771484375,-0.0008260832400992513,-0.001132407458499074,0.00012854083615820855
1772457165938095900,10.794095947265625,0.0000783262075856328,0.00002553500235080719,-0.0004909104318358004
1772457165948114000,10.804114013671875,0.0008936926606111228,0.0004906700924038887,-0.0004387842782307416
1772457165958133000,10.814133056640625,0.00013469182886183262,-0.0002667326480150223,0.0017468720907345414
1772457165968150800,10.82415087890625,0.0010265916353091598,-0.0009189906995743513,0.0015738080255687237
1772457165978169000,10.834169189453124,0.0014028963632881641,0.0006805039010941982,-0.00012369087198749185
1772457165988188000,10.84418798828125,0.0019331835210323334,0.001334942877292633,0.000305850786389783
1772457165998206000,10.8542060546875,0.0010447530075907707,-0.0007018425967544317,0.0022784541361033916
1772457166008225000,10.86422509765625,0.00047470524441450834,-0.00010307691991329193,-0.0012677806662395597
1772457166018242800,10.874242919921874,0.0026057667564600706,-0.00007884204387664795,0.001203899155370891
1772457166028262000,10.884261962890625,0.0005894366186112165,-0.002565805334597826,0.00039379202644340694
1772457166038280000,10.894280029296874,0.0025910683907568455,-0.0016803042963147163,0.0028606781270354986
1772457166048298000,10.904298095703124,0.003630539635196328,-0.0004956787452101707,-0.0008046920411288738
1772457166058317000,10.914317138671874,-0.0006931023672223091,0.00017091026529669762,0.0011378176277503371
1772457166068334800,10.9243349609375,-0.0004887890536338091,0.0013032625429332256,-0.00001580489333719015
1772457166078353000,10.934352783203124,0.002741625066846609,-0.0010927836410701275,0.0010041857603937387
1772457166088372000,10.9443720703125,0.0006937787984497845,-0.0004788560327142477,-0.0016204915009438992
1772457166098389800,10.9543896484375,0.0008074957295320928,-0.002485814271494746,-0.0010668202303349972
1772457166108408800,10.964408935546874,-0.00007674808148294687,-0.0004592959303408861,-0.0006560173933394253
1772457166118427000,10.974427001953124,0.0010572259780019522,-0.001511777052655816,0.0000664981926092878
1772457166128446000,10.984446044921874,-0.000565779278986156,-0.0014035515487194061,-0.0006348046008497477
1772457166138464000,10.994464111328124,0.0015991042600944638,0.0008761142380535603,0.0019146394915878773
1772457166148481800,11.004481689453126,0.0020419908687472343,0.000628150999546051,-0.0007957735797390342
1772457166158500900,11.0145009765625,0.0016531693981960416,-0.0003162059001624584,-0.0007699409034103155
1772457166168518700,11.0245185546875,-0.0001167545560747385,0.00014711357653141022,-0.0010109120048582554
1772457166178537000,11.034536865234376,0.000920280406717211,0.000257901381701231,0.002706860890612006
1772457166188556000,11.04455615234375,-0.000002207467332482338,-0.00044579547829926014,-0.0003003261226695031
1772457166198573800,11.05457373046875,-0.0010429708054289222,-0.0020570079796016216,0.0014887854922562838
1772457166208593000,11.064593017578124,-0.002024558139964938,-0.0011848921421915293,-0.0012414137599989772
1772457166218611000,11.07461083984375,-0.0009491737000644207,-0.00017182575538754463,-0.0003194273158442229
1772457166228629800,11.084629638671874,0.0009014272363856435,0.0014494084753096104,0.0008726280648261309
1772457166238648000,11.09464794921875,0.0007901070639491081,0.0005798861384391785,-0.0005058241076767445
1772457166248665900,11.104665771484376,0.0021125255152583122,0.008828681893646717,0.023351212963461876
1772457166258685000,11.114684814453126,0.00096337147988379,0.0008301436901092529,0.046692755073308945
1772457166268703000,11.124702880859376,0.002157629933208227,-0.0022531088907271624,-0.036633700132369995
1772457166278721800,11.1347216796875,-0.0008291052654385567,0.0010614614002406597,-0.06474097073078156
1772457166288739800,11.14473974609375,0.0005733467405661941,-0.0015313650947064161,0.01623455621302128
1772457166298758000,11.1547578125,0.001153116929344833,-0.0005790186114609241,0.044072579592466354
1772457166308777000,11.16477685546875,0.0018851461354643106,0.00021560583263635635,-0.01946396566927433
